STUDYID,DOMAIN,USUBJID,SUBJID,RFSTDTC,RFENDTC,RFXSTDTC,RFXENDTC,RFICDTC,RFPENDTC,DTHDTC,DTHFL,SITEID,AGE,AGEU,SEX,RACE,ETHNIC,ARMCD,ARM,ACTARMCD,ACTARM,COUNTRY,DMDTC,DMDY,BRTHDTC
ASTUDY,DM,ASTUDY-0001,1,2010-02-21T00:00:00Z,2010-04-04T00:00:00Z,2010-02-21T00:00:00Z,2010-04-04T00:00:00Z,2010-02-07T00:00:00Z,2010-04-04T00:00:00Z,,,1329,57,YEARS,F,ASIAN,NOT HISPANIC OR LATINO,SD_3 mg IV,SD 3 mg IV,SD_3 mg IV,SD 3 mg IV,USA,2010-02-07T00:00:00Z,-14,1953-03-07T00:00:00Z
ASTUDY,DM,ASTUDY-0002,2,2010-02-21T00:00:00Z,2010-04-04T00:00:00Z,2010-02-21T00:00:00Z,2010-04-04T00:00:00Z,2010-02-02T00:00:00Z,2010-04-04T00:00:00Z,,,1329,49,YEARS,M,ASIAN,NOT HISPANIC OR LATINO,SD_3 mg IV,SD 3 mg IV,SD_3 mg IV,SD 3 mg IV,USA,2010-02-02T00:00:00Z,-19,1961-03-05T00:00:00Z
ASTUDY,DM,ASTUDY-0003,3,2010-02-21T00:00:00Z,2010-04-04T00:00:00Z,2010-02-21T00:00:00Z,2010-04-04T00:00:00Z,2010-02-09T00:00:00Z,2010-04-04T00:00:00Z,,,2470,56,YEARS,F,WHITE,NOT HISPANIC OR LATINO,SD_3 mg IV,SD 3 mg IV,SD_3 mg IV,SD 3 mg IV,USA,2010-02-09T00:00:00Z,-12,1954-03-07T00:00:00Z
ASTUDY,DM,ASTUDY-0004,4,2010-02-21T00:00:00Z,2010-04-04T00:00:00Z,2010-02-21T00:00:00Z,2010-04-04T00:00:00Z,2010-02-03T00:00:00Z,2010-04-04T00:00:00Z,,,1001,51,YEARS,M,BLACK OR AFRICAN AMERICAN,NOT HISPANIC OR LATINO,SD_3 mg IV,SD 3 mg IV,SD_3 mg IV,SD 3 mg IV,USA,2010-02-03T00:00:00Z,-18,1959-03-06T00:00:00Z
ASTUDY,DM,ASTUDY-0005,5,2010-02-21T00:00:00Z,2010-04-04T00:00:00Z,2010-02-21T00:00:00Z,2010-04-04T00:00:00Z,2010-02-10T00:00:00Z,2010-04-04T00:00:00Z,,,1001,55,YEARS,M,BLACK OR AFRICAN AMERICAN,NOT HISPANIC OR LATINO,SD_3 mg IV,SD 3 mg IV,SD_3 mg IV,SD 3 mg IV,USA,2010-02-10T00:00:00Z,-11,1955-03-07T00:00:00Z
ASTUDY,DM,ASTUDY-0006,6,2010-02-21T00:00:00Z,2010-04-04T00:00:00Z,2010-02-21T00:00:00Z,2010-04-04T00:00:00Z,2010-02-14T00:00:00Z,2010-04-04T00:00:00Z,,,1329,58,YEARS,M,BLACK OR AFRICAN AMERICAN,NOT HISPANIC OR LATINO,SD_3 mg IV,SD 3 mg IV,SD_3 mg IV,SD 3 mg IV,USA,2010-02-14T00:00:00Z,-7,1952-03-07T00:00:00Z
ASTUDY,DM,ASTUDY-0007,7,2010-02-21T00:00:00Z,2010-04-04T00:00:00Z,2010-02-21T00:00:00Z,2010-04-04T00:00:00Z,2010-02-13T00:00:00Z,2010-04-04T00:00:00Z,,,5410,52,YEARS,M,BLACK OR AFRICAN AMERICAN,NOT HISPANIC OR LATINO,SD_3 mg IV,SD 3 mg IV,SD_3 mg IV,SD 3 mg IV,USA,2010-02-13T00:00:00Z,-8,1958-03-06T00:00:00Z
ASTUDY,DM,ASTUDY-0008,8,2010-02-21T00:00:00Z,2010-04-04T00:00:00Z,2010-02-21T00:00:00Z,2010-04-04T00:00:00Z,2010-02-02T00:00:00Z,2010-04-04T00:00:00Z,,,5410,59,YEARS,M,BLACK OR AFRICAN AMERICAN,NOT HISPANIC OR LATINO,SD_3 mg IV,SD 3 mg IV,SD_3 mg IV,SD 3 mg IV,USA,2010-02-02T00:00:00Z,-19,1951-03-08T00:00:00Z
ASTUDY,DM,ASTUDY-0009,9,2010-02-21T00:00:00Z,2010-04-04T00:00:00Z,2010-02-21T00:00:00Z,2010-04-04T00:00:00Z,2010-02-05T00:00:00Z,2010-04-04T00:00:00Z,,,1329,54,YEARS,F,ASIAN,NOT HISPANIC OR LATINO,SD_3 mg IV,SD 3 mg IV,SD_3 mg IV,SD 3 mg IV,USA,2010-02-05T00:00:00Z,-16,1956-03-06T00:00:00Z
ASTUDY,DM,ASTUDY-0010,10,2010-02-21T00:00:00Z,2010-04-04T00:00:00Z,2010-02-21T00:00:00Z,2010-04-04T00:00:00Z,2010-02-14T00:00:00Z,2010-04-04T00:00:00Z,,,5410,57,YEARS,F,BLACK OR AFRICAN AMERICAN,NOT HISPANIC OR LATINO,SD_3 mg IV,SD 3 mg IV,SD_3 mg IV,SD 3 mg IV,USA,2010-02-14T00:00:00Z,-7,1953-03-07T00:00:00Z
ASTUDY,DM,ASTUDY-0011,11,2010-02-21T00:00:00Z,2010-04-04T00:00:00Z,2010-02-21T00:00:00Z,2010-04-04T00:00:00Z,2010-02-05T00:00:00Z,2010-04-04T00:00:00Z,,,5410,49,YEARS,F,WHITE,NOT HISPANIC OR LATINO,SD_3 mg IV,SD 3 mg IV,SD_3 mg IV,SD 3 mg IV,USA,2010-02-05T00:00:00Z,-16,1961-03-05T00:00:00Z
ASTUDY,DM,ASTUDY-0012,12,2010-02-21T00:00:00Z,2010-04-04T00:00:00Z,2010-02-21T00:00:00Z,2010-04-04T00:00:00Z,2010-02-01T00:00:00Z,2010-04-04T00:00:00Z,,,2470,53,YEARS,F,ASIAN,NOT HISPANIC OR LATINO,SD_3 mg IV,SD 3 mg IV,SD_3 mg IV,SD 3 mg IV,USA,2010-02-01T00:00:00Z,-20,1957-03-06T00:00:00Z
ASTUDY,DM,ASTUDY-0013,13,2010-02-21T00:00:00Z,2010-04-04T00:00:00Z,2010-02-21T00:00:00Z,2010-04-04T00:00:00Z,2010-02-09T00:00:00Z,2010-04-04T00:00:00Z,,,2470,60,YEARS,F,WHITE,HISPANIC OR LATINO,SD_3 mg IV,SD 3 mg IV,SD_3 mg IV,SD 3 mg IV,USA,2010-02-09T00:00:00Z,-12,1950-03-08T00:00:00Z
ASTUDY,DM,ASTUDY-0014,14,2010-02-21T00:00:00Z,2010-04-04T00:00:00Z,2010-02-21T00:00:00Z,2010-04-04T00:00:00Z,2010-02-06T00:00:00Z,2010-04-04T00:00:00Z,,,1329,54,YEARS,M,WHITE,NOT HISPANIC OR LATINO,SD_3 mg IV,SD 3 mg IV,SD_3 mg IV,SD 3 mg IV,USA,2010-02-06T00:00:00Z,-15,1956-03-06T00:00:00Z
ASTUDY,DM,ASTUDY-0015,15,2010-02-21T00:00:00Z,2010-04-04T00:00:00Z,2010-02-21T00:00:00Z,2010-04-04T00:00:00Z,2010-02-10T00:00:00Z,2010-04-04T00:00:00Z,,,2470,60,YEARS,F,WHITE,NOT HISPANIC OR LATINO,SD_3 mg IV,SD 3 mg IV,SD_3 mg IV,SD 3 mg IV,USA,2010-02-10T00:00:00Z,-11,1950-03-08T00:00:00Z
ASTUDY,DM,ASTUDY-0016,16,2010-02-21T00:00:00Z,2010-04-04T00:00:00Z,2010-02-21T00:00:00Z,2010-04-04T00:00:00Z,2010-02-04T00:00:00Z,2010-04-04T00:00:00Z,,,2470,53,YEARS,M,BLACK OR AFRICAN AMERICAN,NOT HISPANIC OR LATINO,SD_3 mg IV,SD 3 mg IV,SD_3 mg IV,SD 3 mg IV,USA,2010-02-04T00:00:00Z,-17,1957-03-06T00:00:00Z
ASTUDY,DM,ASTUDY-0017,17,2010-02-21T00:00:00Z,2010-04-04T00:00:00Z,2010-02-21T00:00:00Z,2010-04-04T00:00:00Z,2010-02-01T00:00:00Z,2010-04-04T00:00:00Z,,,5410,53,YEARS,M,BLACK OR AFRICAN AMERICAN,NOT HISPANIC OR LATINO,SD_3 mg IV,SD 3 mg IV,SD_3 mg IV,SD 3 mg IV,USA,2010-02-01T00:00:00Z,-20,1957-03-06T00:00:00Z
ASTUDY,DM,ASTUDY-0018,18,2010-02-21T00:00:00Z,2010-04-04T00:00:00Z,2010-02-21T00:00:00Z,2010-04-04T00:00:00Z,2010-02-14T00:00:00Z,2010-04-04T00:00:00Z,,,1001,56,YEARS,F,ASIAN,NOT HISPANIC OR LATINO,SD_3 mg IV,SD 3 mg IV,SD_3 mg IV,SD 3 mg IV,USA,2010-02-14T00:00:00Z,-7,1954-03-07T00:00:00Z
ASTUDY,DM,ASTUDY-0019,19,2010-02-21T00:00:00Z,2010-04-04T00:00:00Z,2010-02-21T00:00:00Z,2010-04-04T00:00:00Z,2010-02-08T00:00:00Z,2010-04-04T00:00:00Z,,,2470,64,YEARS,M,AMERICAN INDIAN OR ALASKA NATIVE,NOT HISPANIC OR LATINO,SD_3 mg IV,SD 3 mg IV,SD_3 mg IV,SD 3 mg IV,USA,2010-02-08T00:00:00Z,-13,1946-03-09T00:00:00Z
ASTUDY,DM,ASTUDY-0020,20,2010-02-21T00:00:00Z,2010-04-04T00:00:00Z,2010-02-21T00:00:00Z,2010-04-04T00:00:00Z,2010-02-14T00:00:00Z,2010-04-04T00:00:00Z,,,1001,54,YEARS,F,WHITE,HISPANIC OR LATINO,SD_3 mg IV,SD 3 mg IV,SD_3 mg IV,SD 3 mg IV,USA,2010-02-14T00:00:00Z,-7,1956-03-06T00:00:00Z
ASTUDY,DM,ASTUDY-0021,21,2010-02-21T00:00:00Z,2010-04-04T00:00:00Z,2010-02-21T00:00:00Z,2010-04-04T00:00:00Z,2010-02-13T00:00:00Z,2010-04-04T00:00:00Z,,,5410,59,YEARS,F,ASIAN,NOT HISPANIC OR LATINO,SD_10 mg IV,SD 10 mg IV,SD_10 mg IV,SD 10 mg IV,USA,2010-02-13T00:00:00Z,-8,1951-03-08T00:00:00Z
ASTUDY,DM,ASTUDY-0022,22,2010-02-21T00:00:00Z,2010-04-04T00:00:00Z,2010-02-21T00:00:00Z,2010-04-04T00:00:00Z,2010-02-16T00:00:00Z,2010-04-04T00:00:00Z,,,1329,50,YEARS,M,ASIAN,NOT HISPANIC OR LATINO,SD_10 mg IV,SD 10 mg IV,SD_10 mg IV,SD 10 mg IV,USA,2010-02-16T00:00:00Z,-5,1960-03-05T00:00:00Z
ASTUDY,DM,ASTUDY-0023,23,2010-02-21T00:00:00Z,2010-04-04T00:00:00Z,2010-02-21T00:00:00Z,2010-04-04T00:00:00Z,2010-02-13T00:00:00Z,2010-04-04T00:00:00Z,,,2470,53,YEARS,M,BLACK OR AFRICAN AMERICAN,NOT HISPANIC OR LATINO,SD_10 mg IV,SD 10 mg IV,SD_10 mg IV,SD 10 mg IV,USA,2010-02-13T00:00:00Z,-8,1957-03-06T00:00:00Z
ASTUDY,DM,ASTUDY-0024,24,2010-02-21T00:00:00Z,2010-04-04T00:00:00Z,2010-02-21T00:00:00Z,2010-04-04T00:00:00Z,2010-02-03T00:00:00Z,2010-04-04T00:00:00Z,,,1001,61,YEARS,M,BLACK OR AFRICAN AMERICAN,NOT HISPANIC OR LATINO,SD_10 mg IV,SD 10 mg IV,SD_10 mg IV,SD 10 mg IV,USA,2010-02-03T00:00:00Z,-18,1949-03-08T00:00:00Z
ASTUDY,DM,ASTUDY-0025,25,2010-02-21T00:00:00Z,2010-04-04T00:00:00Z,2010-02-21T00:00:00Z,2010-04-04T00:00:00Z,2010-02-05T00:00:00Z,2010-04-04T00:00:00Z,,,2470,65,YEARS,F,AMERICAN INDIAN OR ALASKA NATIVE,NOT HISPANIC OR LATINO,SD_10 mg IV,SD 10 mg IV,SD_10 mg IV,SD 10 mg IV,USA,2010-02-05T00:00:00Z,-16,1945-03-09T00:00:00Z
ASTUDY,DM,ASTUDY-0026,26,2010-02-21T00:00:00Z,2010-04-04T00:00:00Z,2010-02-21T00:00:00Z,2010-04-04T00:00:00Z,2010-01-31T00:00:00Z,2010-04-04T00:00:00Z,,,5410,54,YEARS,F,WHITE,NOT HISPANIC OR LATINO,SD_10 mg IV,SD 10 mg IV,SD_10 mg IV,SD 10 mg IV,USA,2010-01-31T00:00:00Z,-21,1956-03-06T00:00:00Z
ASTUDY,DM,ASTUDY-0027,27,2010-02-21T00:00:00Z,2010-04-04T00:00:00Z,2010-02-21T00:00:00Z,2010-04-04T00:00:00Z,2010-02-15T00:00:00Z,2010-04-04T00:00:00Z,,,2470,55,YEARS,F,ASIAN,NOT HISPANIC OR LATINO,SD_10 mg IV,SD 10 mg IV,SD_10 mg IV,SD 10 mg IV,USA,2010-02-15T00:00:00Z,-6,1955-03-07T00:00:00Z
ASTUDY,DM,ASTUDY-0028,28,2010-02-21T00:00:00Z,2010-04-04T00:00:00Z,2010-02-21T00:00:00Z,2010-04-04T00:00:00Z,2010-02-12T00:00:00Z,2010-04-04T00:00:00Z,,,1329,62,YEARS,M,BLACK OR AFRICAN AMERICAN,NOT HISPANIC OR LATINO,SD_10 mg IV,SD 10 mg IV,SD_10 mg IV,SD 10 mg IV,USA,2010-02-12T00:00:00Z,-9,1948-03-08T00:00:00Z
ASTUDY,DM,ASTUDY-0029,29,2010-02-21T00:00:00Z,2010-04-04T00:00:00Z,2010-02-21T00:00:00Z,2010-04-04T00:00:00Z,2010-01-31T00:00:00Z,2010-04-04T00:00:00Z,,,1001,54,YEARS,M,ASIAN,NOT HISPANIC OR LATINO,SD_10 mg IV,SD 10 mg IV,SD_10 mg IV,SD 10 mg IV,USA,2010-01-31T00:00:00Z,-21,1956-03-06T00:00:00Z
ASTUDY,DM,ASTUDY-0030,30,2010-02-21T00:00:00Z,2010-04-04T00:00:00Z,2010-02-21T00:00:00Z,2010-04-04T00:00:00Z,2010-01-31T00:00:00Z,2010-04-04T00:00:00Z,,,1001,61,YEARS,F,WHITE,HISPANIC OR LATINO,SD_10 mg IV,SD 10 mg IV,SD_10 mg IV,SD 10 mg IV,USA,2010-01-31T00:00:00Z,-21,1949-03-08T00:00:00Z
ASTUDY,DM,ASTUDY-0031,31,2010-02-21T00:00:00Z,2010-04-04T00:00:00Z,2010-02-21T00:00:00Z,2010-04-04T00:00:00Z,2010-02-08T00:00:00Z,2010-04-04T00:00:00Z,,,1001,58,YEARS,F,BLACK OR AFRICAN AMERICAN,NOT HISPANIC OR LATINO,SD_10 mg IV,SD 10 mg IV,SD_10 mg IV,SD 10 mg IV,USA,2010-02-08T00:00:00Z,-13,1952-03-07T00:00:00Z
ASTUDY,DM,ASTUDY-0032,32,2010-02-21T00:00:00Z,2010-04-04T00:00:00Z,2010-02-21T00:00:00Z,2010-04-04T00:00:00Z,2010-02-03T00:00:00Z,2010-04-04T00:00:00Z,,,2470,53,YEARS,M,ASIAN,NOT HISPANIC OR LATINO,SD_10 mg IV,SD 10 mg IV,SD_10 mg IV,SD 10 mg IV,USA,2010-02-03T00:00:00Z,-18,1957-03-06T00:00:00Z
ASTUDY,DM,ASTUDY-0033,33,2010-02-21T00:00:00Z,2010-04-04T00:00:00Z,2010-02-21T00:00:00Z,2010-04-04T00:00:00Z,2010-02-16T00:00:00Z,2010-04-04T00:00:00Z,,,2470,52,YEARS,F,WHITE,NOT HISPANIC OR LATINO,SD_10 mg IV,SD 10 mg IV,SD_10 mg IV,SD 10 mg IV,USA,2010-02-16T00:00:00Z,-5,1958-03-06T00:00:00Z
ASTUDY,DM,ASTUDY-0034,34,2010-02-21T00:00:00Z,2010-04-04T00:00:00Z,2010-02-21T00:00:00Z,2010-04-04T00:00:00Z,2010-02-07T00:00:00Z,2010-04-04T00:00:00Z,,,5410,58,YEARS,M,AMERICAN INDIAN OR ALASKA NATIVE,NOT HISPANIC OR LATINO,SD_10 mg IV,SD 10 mg IV,SD_10 mg IV,SD 10 mg IV,USA,2010-02-07T00:00:00Z,-14,1952-03-07T00:00:00Z
ASTUDY,DM,ASTUDY-0035,35,2010-02-21T00:00:00Z,2010-04-04T00:00:00Z,2010-02-21T00:00:00Z,2010-04-04T00:00:00Z,2010-02-04T00:00:00Z,2010-04-04T00:00:00Z,,,5410,59,YEARS,M,WHITE,HISPANIC OR LATINO,SD_10 mg IV,SD 10 mg IV,SD_10 mg IV,SD 10 mg IV,USA,2010-02-04T00:00:00Z,-17,1951-03-08T00:00:00Z
ASTUDY,DM,ASTUDY-0036,36,2010-02-21T00:00:00Z,2010-04-04T00:00:00Z,2010-02-21T00:00:00Z,2010-04-04T00:00:00Z,2010-02-10T00:00:00Z,2010-04-04T00:00:00Z,,,5410,55,YEARS,F,AMERICAN INDIAN OR ALASKA NATIVE,NOT HISPANIC OR LATINO,SD_10 mg IV,SD 10 mg IV,SD_10 mg IV,SD 10 mg IV,USA,2010-02-10T00:00:00Z,-11,1955-03-07T00:00:00Z
ASTUDY,DM,ASTUDY-0037,37,2010-02-21T00:00:00Z,2010-04-04T00:00:00Z,2010-02-21T00:00:00Z,2010-04-04T00:00:00Z,2010-02-04T00:00:00Z,2010-04-04T00:00:00Z,,,5410,53,YEARS,M,AMERICAN INDIAN OR ALASKA NATIVE,NOT HISPANIC OR LATINO,SD_10 mg IV,SD 10 mg IV,SD_10 mg IV,SD 10 mg IV,USA,2010-02-04T00:00:00Z,-17,1957-03-06T00:00:00Z
ASTUDY,DM,ASTUDY-0038,38,2010-02-21T00:00:00Z,2010-04-04T00:00:00Z,2010-02-21T00:00:00Z,2010-04-04T00:00:00Z,2010-02-16T00:00:00Z,2010-04-04T00:00:00Z,,,1001,49,YEARS,F,BLACK OR AFRICAN AMERICAN,NOT HISPANIC OR LATINO,SD_10 mg IV,SD 10 mg IV,SD_10 mg IV,SD 10 mg IV,USA,2010-02-16T00:00:00Z,-5,1961-03-05T00:00:00Z
ASTUDY,DM,ASTUDY-0039,39,2010-02-21T00:00:00Z,2010-04-04T00:00:00Z,2010-02-21T00:00:00Z,2010-04-04T00:00:00Z,2010-02-07T00:00:00Z,2010-04-04T00:00:00Z,,,5410,59,YEARS,M,BLACK OR AFRICAN AMERICAN,NOT HISPANIC OR LATINO,SD_10 mg IV,SD 10 mg IV,SD_10 mg IV,SD 10 mg IV,USA,2010-02-07T00:00:00Z,-14,1951-03-08T00:00:00Z
ASTUDY,DM,ASTUDY-0040,40,2010-02-21T00:00:00Z,2010-04-04T00:00:00Z,2010-02-21T00:00:00Z,2010-04-04T00:00:00Z,2010-02-18T00:00:00Z,2010-04-04T00:00:00Z,,,2470,51,YEARS,M,WHITE,HISPANIC OR LATINO,SD_10 mg IV,SD 10 mg IV,SD_10 mg IV,SD 10 mg IV,USA,2010-02-18T00:00:00Z,-3,1959-03-06T00:00:00Z
