STUDYID,DOMAIN,USUBJID,PCSEQ,PCTESTCD,PCTEST,PCORRES,PCORRESU,PCSTRESC,PCSTRESN,PCSTRESU,PCNAM,PCSPEC,PCLLOQ,VISIT,VISITNUM,PCDTC,PCDY,PCTPT,PCTPTNUM
ASTUDY,PC,ASTUDY-0001,1,MAB,UNPRONOUNCAMAB,<BLQ,ng/ml,<BLQ,NA,ng/ml,Night City Labs,PLASMA,1,PREDOSE,1,2000-02-21T13:00:00Z,-1,PREDOSE,0
ASTUDY,PC,ASTUDY-0001,2,MAB,UNPRONOUNCAMAB,690.5,ng/ml,690.5,690.5,ng/ml,Night City Labs,PLASMA,1,DAY  1,1,2000-02-22T13:00:00Z,1,24h POSTDOSE,24
ASTUDY,PC,ASTUDY-0001,3,MAB,UNPRONOUNCAMAB,588.2,ng/ml,588.2,588.2,ng/ml,Night City Labs,PLASMA,1,DAY  2,1,2000-02-23T13:00:00Z,1,48h POSTDOSE,48
ASTUDY,PC,ASTUDY-0001,4,MAB,UNPRONOUNCAMAB,505.5,ng/ml,505.5,505.5,ng/ml,Night City Labs,PLASMA,1,DAY  3,1,2000-02-24T13:00:00Z,1,72h POSTDOSE,72
ASTUDY,PC,ASTUDY-0001,5,MAB,UNPRONOUNCAMAB,438.5,ng/ml,438.5,438.5,ng/ml,Night City Labs,PLASMA,1,DAY  4,1,2000-02-25T13:00:00Z,1,96h POSTDOSE,96
ASTUDY,PC,ASTUDY-0001,6,MAB,UNPRONOUNCAMAB,303.2,ng/ml,303.2,303.2,ng/ml,Night City Labs,PLASMA,1,DAY  7,1,2000-02-28T13:00:00Z,1,168h POSTDOSE,168
ASTUDY,PC,ASTUDY-0001,7,MAB,UNPRONOUNCAMAB,122.9,ng/ml,122.9,122.9,ng/ml,Night City Labs,PLASMA,1,DAY  21,1,2000-03-13T13:00:00Z,1,504h POSTDOSE,504
ASTUDY,PC,ASTUDY-0001,8,MAB,UNPRONOUNCAMAB,95.48,ng/ml,95.48,95.48,ng/ml,Night City Labs,PLASMA,1,DAY  28,1,2000-03-20T13:00:00Z,1,672h POSTDOSE,672
ASTUDY,PC,ASTUDY-0001,9,MAB,UNPRONOUNCAMAB,75.83,ng/ml,75.83,75.83,ng/ml,Night City Labs,PLASMA,1,DAY  35,1,2000-03-27T13:00:00Z,1,840h POSTDOSE,840
ASTUDY,PC,ASTUDY-0001,10,MAB,UNPRONOUNCAMAB,60.57,ng/ml,60.57,60.57,ng/ml,Night City Labs,PLASMA,1,DAY  42,1,2000-04-03T13:00:00Z,1,1008h POSTDOSE,1008
ASTUDY,PC,ASTUDY-0002,1,MAB,UNPRONOUNCAMAB,<BLQ,ng/ml,<BLQ,NA,ng/ml,Night City Labs,PLASMA,1,PREDOSE,1,2000-02-21T13:00:00Z,-1,PREDOSE,0
ASTUDY,PC,ASTUDY-0002,2,MAB,UNPRONOUNCAMAB,750.1,ng/ml,750.1,750.1,ng/ml,Night City Labs,PLASMA,1,DAY  1,1,2000-02-22T13:00:00Z,1,24h POSTDOSE,24
ASTUDY,PC,ASTUDY-0002,3,MAB,UNPRONOUNCAMAB,576.7,ng/ml,576.7,576.7,ng/ml,Night City Labs,PLASMA,1,DAY  2,1,2000-02-23T13:00:00Z,1,48h POSTDOSE,48
ASTUDY,PC,ASTUDY-0002,4,MAB,UNPRONOUNCAMAB,508.3,ng/ml,508.3,508.3,ng/ml,Night City Labs,PLASMA,1,DAY  3,1,2000-02-24T13:00:00Z,1,72h POSTDOSE,72
ASTUDY,PC,ASTUDY-0002,5,MAB,UNPRONOUNCAMAB,475.6,ng/ml,475.6,475.6,ng/ml,Night City Labs,PLASMA,1,DAY  4,1,2000-02-25T13:00:00Z,1,96h POSTDOSE,96
ASTUDY,PC,ASTUDY-0002,6,MAB,UNPRONOUNCAMAB,425.1,ng/ml,425.1,425.1,ng/ml,Night City Labs,PLASMA,1,DAY  7,1,2000-02-28T13:00:00Z,1,168h POSTDOSE,168
ASTUDY,PC,ASTUDY-0002,7,MAB,UNPRONOUNCAMAB,274.3,ng/ml,274.3,274.3,ng/ml,Night City Labs,PLASMA,1,DAY  21,1,2000-03-13T13:00:00Z,1,504h POSTDOSE,504
ASTUDY,PC,ASTUDY-0002,8,MAB,UNPRONOUNCAMAB,220.4,ng/ml,220.4,220.4,ng/ml,Night City Labs,PLASMA,1,DAY  28,1,2000-03-20T13:00:00Z,1,672h POSTDOSE,672
ASTUDY,PC,ASTUDY-0002,9,MAB,UNPRONOUNCAMAB,177.1,ng/ml,177.1,177.1,ng/ml,Night City Labs,PLASMA,1,DAY  35,1,2000-03-27T13:00:00Z,1,840h POSTDOSE,840
ASTUDY,PC,ASTUDY-0002,10,MAB,UNPRONOUNCAMAB,142.4,ng/ml,142.4,142.4,ng/ml,Night City Labs,PLASMA,1,DAY  42,1,2000-04-03T13:00:00Z,1,1008h POSTDOSE,1008
ASTUDY,PC,ASTUDY-0003,1,MAB,UNPRONOUNCAMAB,<BLQ,ng/ml,<BLQ,NA,ng/ml,Night City Labs,PLASMA,1,PREDOSE,1,2000-02-21T13:00:00Z,-1,PREDOSE,0
ASTUDY,PC,ASTUDY-0003,2,MAB,UNPRONOUNCAMAB,669.5,ng/ml,669.5,669.5,ng/ml,Night City Labs,PLASMA,1,DAY  1,1,2000-02-22T13:00:00Z,1,24h POSTDOSE,24
ASTUDY,PC,ASTUDY-0003,3,MAB,UNPRONOUNCAMAB,575.8,ng/ml,575.8,575.8,ng/ml,Night City Labs,PLASMA,1,DAY  2,1,2000-02-23T13:00:00Z,1,48h POSTDOSE,48
ASTUDY,PC,ASTUDY-0003,4,MAB,UNPRONOUNCAMAB,501,ng/ml,501,501,ng/ml,Night City Labs,PLASMA,1,DAY  3,1,2000-02-24T13:00:00Z,1,72h POSTDOSE,72
ASTUDY,PC,ASTUDY-0003,5,MAB,UNPRONOUNCAMAB,440.8,ng/ml,440.8,440.8,ng/ml,Night City Labs,PLASMA,1,DAY  4,1,2000-02-25T13:00:00Z,1,96h POSTDOSE,96
ASTUDY,PC,ASTUDY-0003,6,MAB,UNPRONOUNCAMAB,319.7,ng/ml,319.7,319.7,ng/ml,Night City Labs,PLASMA,1,DAY  7,1,2000-02-28T13:00:00Z,1,168h POSTDOSE,168
ASTUDY,PC,ASTUDY-0003,7,MAB,UNPRONOUNCAMAB,139.3,ng/ml,139.3,139.3,ng/ml,Night City Labs,PLASMA,1,DAY  21,1,2000-03-13T13:00:00Z,1,504h POSTDOSE,504
ASTUDY,PC,ASTUDY-0003,8,MAB,UNPRONOUNCAMAB,103.6,ng/ml,103.6,103.6,ng/ml,Night City Labs,PLASMA,1,DAY  28,1,2000-03-20T13:00:00Z,1,672h POSTDOSE,672
ASTUDY,PC,ASTUDY-0003,9,MAB,UNPRONOUNCAMAB,77.83,ng/ml,77.83,77.83,ng/ml,Night City Labs,PLASMA,1,DAY  35,1,2000-03-27T13:00:00Z,1,840h POSTDOSE,840
ASTUDY,PC,ASTUDY-0003,10,MAB,UNPRONOUNCAMAB,58.58,ng/ml,58.58,58.58,ng/ml,Night City Labs,PLASMA,1,DAY  42,1,2000-04-03T13:00:00Z,1,1008h POSTDOSE,1008
ASTUDY,PC,ASTUDY-0004,1,MAB,UNPRONOUNCAMAB,<BLQ,ng/ml,<BLQ,NA,ng/ml,Night City Labs,PLASMA,1,PREDOSE,1,2000-02-21T13:00:00Z,-1,PREDOSE,0
ASTUDY,PC,ASTUDY-0004,2,MAB,UNPRONOUNCAMAB,638.4,ng/ml,638.4,638.4,ng/ml,Night City Labs,PLASMA,1,DAY  1,1,2000-02-22T13:00:00Z,1,24h POSTDOSE,24
ASTUDY,PC,ASTUDY-0004,3,MAB,UNPRONOUNCAMAB,517.2,ng/ml,517.2,517.2,ng/ml,Night City Labs,PLASMA,1,DAY  2,1,2000-02-23T13:00:00Z,1,48h POSTDOSE,48
ASTUDY,PC,ASTUDY-0004,4,MAB,UNPRONOUNCAMAB,437.8,ng/ml,437.8,437.8,ng/ml,Night City Labs,PLASMA,1,DAY  3,1,2000-02-24T13:00:00Z,1,72h POSTDOSE,72
ASTUDY,PC,ASTUDY-0004,5,MAB,UNPRONOUNCAMAB,384.3,ng/ml,384.3,384.3,ng/ml,Night City Labs,PLASMA,1,DAY  4,1,2000-02-25T13:00:00Z,1,96h POSTDOSE,96
ASTUDY,PC,ASTUDY-0004,6,MAB,UNPRONOUNCAMAB,300.1,ng/ml,300.1,300.1,ng/ml,Night City Labs,PLASMA,1,DAY  7,1,2000-02-28T13:00:00Z,1,168h POSTDOSE,168
ASTUDY,PC,ASTUDY-0004,7,MAB,UNPRONOUNCAMAB,172.9,ng/ml,172.9,172.9,ng/ml,Night City Labs,PLASMA,1,DAY  21,1,2000-03-13T13:00:00Z,1,504h POSTDOSE,504
ASTUDY,PC,ASTUDY-0004,8,MAB,UNPRONOUNCAMAB,134.9,ng/ml,134.9,134.9,ng/ml,Night City Labs,PLASMA,1,DAY  28,1,2000-03-20T13:00:00Z,1,672h POSTDOSE,672
ASTUDY,PC,ASTUDY-0004,9,MAB,UNPRONOUNCAMAB,105.4,ng/ml,105.4,105.4,ng/ml,Night City Labs,PLASMA,1,DAY  35,1,2000-03-27T13:00:00Z,1,840h POSTDOSE,840
ASTUDY,PC,ASTUDY-0004,10,MAB,UNPRONOUNCAMAB,82.25,ng/ml,82.25,82.25,ng/ml,Night City Labs,PLASMA,1,DAY  42,1,2000-04-03T13:00:00Z,1,1008h POSTDOSE,1008
ASTUDY,PC,ASTUDY-0005,1,MAB,UNPRONOUNCAMAB,<BLQ,ng/ml,<BLQ,NA,ng/ml,Night City Labs,PLASMA,1,PREDOSE,1,2000-02-21T13:00:00Z,-1,PREDOSE,0
ASTUDY,PC,ASTUDY-0005,2,MAB,UNPRONOUNCAMAB,855.4,ng/ml,855.4,855.4,ng/ml,Night City Labs,PLASMA,1,DAY  1,1,2000-02-22T13:00:00Z,1,24h POSTDOSE,24
ASTUDY,PC,ASTUDY-0005,3,MAB,UNPRONOUNCAMAB,667.9,ng/ml,667.9,667.9,ng/ml,Night City Labs,PLASMA,1,DAY  2,1,2000-02-23T13:00:00Z,1,48h POSTDOSE,48
ASTUDY,PC,ASTUDY-0005,4,MAB,UNPRONOUNCAMAB,548.6,ng/ml,548.6,548.6,ng/ml,Night City Labs,PLASMA,1,DAY  3,1,2000-02-24T13:00:00Z,1,72h POSTDOSE,72
ASTUDY,PC,ASTUDY-0005,5,MAB,UNPRONOUNCAMAB,471.5,ng/ml,471.5,471.5,ng/ml,Night City Labs,PLASMA,1,DAY  4,1,2000-02-25T13:00:00Z,1,96h POSTDOSE,96
ASTUDY,PC,ASTUDY-0005,6,MAB,UNPRONOUNCAMAB,360.4,ng/ml,360.4,360.4,ng/ml,Night City Labs,PLASMA,1,DAY  7,1,2000-02-28T13:00:00Z,1,168h POSTDOSE,168
ASTUDY,PC,ASTUDY-0005,7,MAB,UNPRONOUNCAMAB,228.4,ng/ml,228.4,228.4,ng/ml,Night City Labs,PLASMA,1,DAY  21,1,2000-03-13T13:00:00Z,1,504h POSTDOSE,504
ASTUDY,PC,ASTUDY-0005,8,MAB,UNPRONOUNCAMAB,188.4,ng/ml,188.4,188.4,ng/ml,Night City Labs,PLASMA,1,DAY  28,1,2000-03-20T13:00:00Z,1,672h POSTDOSE,672
ASTUDY,PC,ASTUDY-0005,9,MAB,UNPRONOUNCAMAB,155.5,ng/ml,155.5,155.5,ng/ml,Night City Labs,PLASMA,1,DAY  35,1,2000-03-27T13:00:00Z,1,840h POSTDOSE,840
ASTUDY,PC,ASTUDY-0005,10,MAB,UNPRONOUNCAMAB,128.3,ng/ml,128.3,128.3,ng/ml,Night City Labs,PLASMA,1,DAY  42,1,2000-04-03T13:00:00Z,1,1008h POSTDOSE,1008
ASTUDY,PC,ASTUDY-0006,1,MAB,UNPRONOUNCAMAB,<BLQ,ng/ml,<BLQ,NA,ng/ml,Night City Labs,PLASMA,1,PREDOSE,1,2000-02-21T13:00:00Z,-1,PREDOSE,0
ASTUDY,PC,ASTUDY-0006,2,MAB,UNPRONOUNCAMAB,611.2,ng/ml,611.2,611.2,ng/ml,Night City Labs,PLASMA,1,DAY  1,1,2000-02-22T13:00:00Z,1,24h POSTDOSE,24
ASTUDY,PC,ASTUDY-0006,3,MAB,UNPRONOUNCAMAB,520.8,ng/ml,520.8,520.8,ng/ml,Night City Labs,PLASMA,1,DAY  2,1,2000-02-23T13:00:00Z,1,48h POSTDOSE,48
ASTUDY,PC,ASTUDY-0006,4,MAB,UNPRONOUNCAMAB,456,ng/ml,456,456,ng/ml,Night City Labs,PLASMA,1,DAY  3,1,2000-02-24T13:00:00Z,1,72h POSTDOSE,72
ASTUDY,PC,ASTUDY-0006,5,MAB,UNPRONOUNCAMAB,408.7,ng/ml,408.7,408.7,ng/ml,Night City Labs,PLASMA,1,DAY  4,1,2000-02-25T13:00:00Z,1,96h POSTDOSE,96
ASTUDY,PC,ASTUDY-0006,6,MAB,UNPRONOUNCAMAB,325.2,ng/ml,325.2,325.2,ng/ml,Night City Labs,PLASMA,1,DAY  7,1,2000-02-28T13:00:00Z,1,168h POSTDOSE,168
ASTUDY,PC,ASTUDY-0006,7,MAB,UNPRONOUNCAMAB,193.6,ng/ml,193.6,193.6,ng/ml,Night City Labs,PLASMA,1,DAY  21,1,2000-03-13T13:00:00Z,1,504h POSTDOSE,504
ASTUDY,PC,ASTUDY-0006,8,MAB,UNPRONOUNCAMAB,155.3,ng/ml,155.3,155.3,ng/ml,Night City Labs,PLASMA,1,DAY  28,1,2000-03-20T13:00:00Z,1,672h POSTDOSE,672
ASTUDY,PC,ASTUDY-0006,9,MAB,UNPRONOUNCAMAB,124.6,ng/ml,124.6,124.6,ng/ml,Night City Labs,PLASMA,1,DAY  35,1,2000-03-27T13:00:00Z,1,840h POSTDOSE,840
ASTUDY,PC,ASTUDY-0006,10,MAB,UNPRONOUNCAMAB,100,ng/ml,100,100,ng/ml,Night City Labs,PLASMA,1,DAY  42,1,2000-04-03T13:00:00Z,1,1008h POSTDOSE,1008
ASTUDY,PC,ASTUDY-0007,1,MAB,UNPRONOUNCAMAB,<BLQ,ng/ml,<BLQ,NA,ng/ml,Night City Labs,PLASMA,1,PREDOSE,1,2000-02-21T13:00:00Z,-1,PREDOSE,0
ASTUDY,PC,ASTUDY-0007,2,MAB,UNPRONOUNCAMAB,554.4,ng/ml,554.4,554.4,ng/ml,Night City Labs,PLASMA,1,DAY  1,1,2000-02-22T13:00:00Z,1,24h POSTDOSE,24
ASTUDY,PC,ASTUDY-0007,3,MAB,UNPRONOUNCAMAB,475.7,ng/ml,475.7,475.7,ng/ml,Night City Labs,PLASMA,1,DAY  2,1,2000-02-23T13:00:00Z,1,48h POSTDOSE,48
ASTUDY,PC,ASTUDY-0007,4,MAB,UNPRONOUNCAMAB,424.8,ng/ml,424.8,424.8,ng/ml,Night City Labs,PLASMA,1,DAY  3,1,2000-02-24T13:00:00Z,1,72h POSTDOSE,72
ASTUDY,PC,ASTUDY-0007,5,MAB,UNPRONOUNCAMAB,390.4,ng/ml,390.4,390.4,ng/ml,Night City Labs,PLASMA,1,DAY  4,1,2000-02-25T13:00:00Z,1,96h POSTDOSE,96
ASTUDY,PC,ASTUDY-0007,6,MAB,UNPRONOUNCAMAB,332.3,ng/ml,332.3,332.3,ng/ml,Night City Labs,PLASMA,1,DAY  7,1,2000-02-28T13:00:00Z,1,168h POSTDOSE,168
ASTUDY,PC,ASTUDY-0007,7,MAB,UNPRONOUNCAMAB,210.1,ng/ml,210.1,210.1,ng/ml,Night City Labs,PLASMA,1,DAY  21,1,2000-03-13T13:00:00Z,1,504h POSTDOSE,504
ASTUDY,PC,ASTUDY-0007,8,MAB,UNPRONOUNCAMAB,168.8,ng/ml,168.8,168.8,ng/ml,Night City Labs,PLASMA,1,DAY  28,1,2000-03-20T13:00:00Z,1,672h POSTDOSE,672
ASTUDY,PC,ASTUDY-0007,9,MAB,UNPRONOUNCAMAB,135.6,ng/ml,135.6,135.6,ng/ml,Night City Labs,PLASMA,1,DAY  35,1,2000-03-27T13:00:00Z,1,840h POSTDOSE,840
ASTUDY,PC,ASTUDY-0007,10,MAB,UNPRONOUNCAMAB,108.9,ng/ml,108.9,108.9,ng/ml,Night City Labs,PLASMA,1,DAY  42,1,2000-04-03T13:00:00Z,1,1008h POSTDOSE,1008
ASTUDY,PC,ASTUDY-0008,1,MAB,UNPRONOUNCAMAB,<BLQ,ng/ml,<BLQ,NA,ng/ml,Night City Labs,PLASMA,1,PREDOSE,1,2000-02-21T13:00:00Z,-1,PREDOSE,0
ASTUDY,PC,ASTUDY-0008,2,MAB,UNPRONOUNCAMAB,501,ng/ml,501,501,ng/ml,Night City Labs,PLASMA,1,DAY  1,1,2000-02-22T13:00:00Z,1,24h POSTDOSE,24
ASTUDY,PC,ASTUDY-0008,3,MAB,UNPRONOUNCAMAB,447.6,ng/ml,447.6,447.6,ng/ml,Night City Labs,PLASMA,1,DAY  2,1,2000-02-23T13:00:00Z,1,48h POSTDOSE,48
ASTUDY,PC,ASTUDY-0008,4,MAB,UNPRONOUNCAMAB,412.9,ng/ml,412.9,412.9,ng/ml,Night City Labs,PLASMA,1,DAY  3,1,2000-02-24T13:00:00Z,1,72h POSTDOSE,72
ASTUDY,PC,ASTUDY-0008,5,MAB,UNPRONOUNCAMAB,389.2,ng/ml,389.2,389.2,ng/ml,Night City Labs,PLASMA,1,DAY  4,1,2000-02-25T13:00:00Z,1,96h POSTDOSE,96
ASTUDY,PC,ASTUDY-0008,6,MAB,UNPRONOUNCAMAB,346.8,ng/ml,346.8,346.8,ng/ml,Night City Labs,PLASMA,1,DAY  7,1,2000-02-28T13:00:00Z,1,168h POSTDOSE,168
ASTUDY,PC,ASTUDY-0008,7,MAB,UNPRONOUNCAMAB,241.4,ng/ml,241.4,241.4,ng/ml,Night City Labs,PLASMA,1,DAY  21,1,2000-03-13T13:00:00Z,1,504h POSTDOSE,504
ASTUDY,PC,ASTUDY-0008,8,MAB,UNPRONOUNCAMAB,202.5,ng/ml,202.5,202.5,ng/ml,Night City Labs,PLASMA,1,DAY  28,1,2000-03-20T13:00:00Z,1,672h POSTDOSE,672
ASTUDY,PC,ASTUDY-0008,9,MAB,UNPRONOUNCAMAB,169.9,ng/ml,169.9,169.9,ng/ml,Night City Labs,PLASMA,1,DAY  35,1,2000-03-27T13:00:00Z,1,840h POSTDOSE,840
ASTUDY,PC,ASTUDY-0008,10,MAB,UNPRONOUNCAMAB,142.5,ng/ml,142.5,142.5,ng/ml,Night City Labs,PLASMA,1,DAY  42,1,2000-04-03T13:00:00Z,1,1008h POSTDOSE,1008
ASTUDY,PC,ASTUDY-0009,1,MAB,UNPRONOUNCAMAB,<BLQ,ng/ml,<BLQ,NA,ng/ml,Night City Labs,PLASMA,1,PREDOSE,1,2000-02-21T13:00:00Z,-1,PREDOSE,0
ASTUDY,PC,ASTUDY-0009,2,MAB,UNPRONOUNCAMAB,1101,ng/ml,1101,1101,ng/ml,Night City Labs,PLASMA,1,DAY  1,1,2000-02-22T13:00:00Z,1,24h POSTDOSE,24
ASTUDY,PC,ASTUDY-0009,3,MAB,UNPRONOUNCAMAB,863.5,ng/ml,863.5,863.5,ng/ml,Night City Labs,PLASMA,1,DAY  2,1,2000-02-23T13:00:00Z,1,48h POSTDOSE,48
ASTUDY,PC,ASTUDY-0009,4,MAB,UNPRONOUNCAMAB,701,ng/ml,701,701,ng/ml,Night City Labs,PLASMA,1,DAY  3,1,2000-02-24T13:00:00Z,1,72h POSTDOSE,72
ASTUDY,PC,ASTUDY-0009,5,MAB,UNPRONOUNCAMAB,588.6,ng/ml,588.6,588.6,ng/ml,Night City Labs,PLASMA,1,DAY  4,1,2000-02-25T13:00:00Z,1,96h POSTDOSE,96
ASTUDY,PC,ASTUDY-0009,6,MAB,UNPRONOUNCAMAB,412.6,ng/ml,412.6,412.6,ng/ml,Night City Labs,PLASMA,1,DAY  7,1,2000-02-28T13:00:00Z,1,168h POSTDOSE,168
ASTUDY,PC,ASTUDY-0009,7,MAB,UNPRONOUNCAMAB,229.3,ng/ml,229.3,229.3,ng/ml,Night City Labs,PLASMA,1,DAY  21,1,2000-03-13T13:00:00Z,1,504h POSTDOSE,504
ASTUDY,PC,ASTUDY-0009,8,MAB,UNPRONOUNCAMAB,184.8,ng/ml,184.8,184.8,ng/ml,Night City Labs,PLASMA,1,DAY  28,1,2000-03-20T13:00:00Z,1,672h POSTDOSE,672
ASTUDY,PC,ASTUDY-0009,9,MAB,UNPRONOUNCAMAB,149.1,ng/ml,149.1,149.1,ng/ml,Night City Labs,PLASMA,1,DAY  35,1,2000-03-27T13:00:00Z,1,840h POSTDOSE,840
ASTUDY,PC,ASTUDY-0009,10,MAB,UNPRONOUNCAMAB,120.3,ng/ml,120.3,120.3,ng/ml,Night City Labs,PLASMA,1,DAY  42,1,2000-04-03T13:00:00Z,1,1008h POSTDOSE,1008
ASTUDY,PC,ASTUDY-0010,1,MAB,UNPRONOUNCAMAB,<BLQ,ng/ml,<BLQ,NA,ng/ml,Night City Labs,PLASMA,1,PREDOSE,1,2000-02-21T13:00:00Z,-1,PREDOSE,0
ASTUDY,PC,ASTUDY-0010,2,MAB,UNPRONOUNCAMAB,827.7,ng/ml,827.7,827.7,ng/ml,Night City Labs,PLASMA,1,DAY  1,1,2000-02-22T13:00:00Z,1,24h POSTDOSE,24
ASTUDY,PC,ASTUDY-0010,3,MAB,UNPRONOUNCAMAB,728.5,ng/ml,728.5,728.5,ng/ml,Night City Labs,PLASMA,1,DAY  2,1,2000-02-23T13:00:00Z,1,48h POSTDOSE,48
ASTUDY,PC,ASTUDY-0010,4,MAB,UNPRONOUNCAMAB,649.2,ng/ml,649.2,649.2,ng/ml,Night City Labs,PLASMA,1,DAY  3,1,2000-02-24T13:00:00Z,1,72h POSTDOSE,72
ASTUDY,PC,ASTUDY-0010,5,MAB,UNPRONOUNCAMAB,585.2,ng/ml,585.2,585.2,ng/ml,Night City Labs,PLASMA,1,DAY  4,1,2000-02-25T13:00:00Z,1,96h POSTDOSE,96
ASTUDY,PC,ASTUDY-0010,6,MAB,UNPRONOUNCAMAB,454.9,ng/ml,454.9,454.9,ng/ml,Night City Labs,PLASMA,1,DAY  7,1,2000-02-28T13:00:00Z,1,168h POSTDOSE,168
ASTUDY,PC,ASTUDY-0010,7,MAB,UNPRONOUNCAMAB,241,ng/ml,241,241,ng/ml,Night City Labs,PLASMA,1,DAY  21,1,2000-03-13T13:00:00Z,1,504h POSTDOSE,504
ASTUDY,PC,ASTUDY-0010,8,MAB,UNPRONOUNCAMAB,190.4,ng/ml,190.4,190.4,ng/ml,Night City Labs,PLASMA,1,DAY  28,1,2000-03-20T13:00:00Z,1,672h POSTDOSE,672
ASTUDY,PC,ASTUDY-0010,9,MAB,UNPRONOUNCAMAB,151.3,ng/ml,151.3,151.3,ng/ml,Night City Labs,PLASMA,1,DAY  35,1,2000-03-27T13:00:00Z,1,840h POSTDOSE,840
ASTUDY,PC,ASTUDY-0010,10,MAB,UNPRONOUNCAMAB,120.3,ng/ml,120.3,120.3,ng/ml,Night City Labs,PLASMA,1,DAY  42,1,2000-04-03T13:00:00Z,1,1008h POSTDOSE,1008
ASTUDY,PC,ASTUDY-0011,1,MAB,UNPRONOUNCAMAB,<BLQ,ng/ml,<BLQ,NA,ng/ml,Night City Labs,PLASMA,1,PREDOSE,1,2000-02-21T13:00:00Z,-1,PREDOSE,0
ASTUDY,PC,ASTUDY-0011,2,MAB,UNPRONOUNCAMAB,552.7,ng/ml,552.7,552.7,ng/ml,Night City Labs,PLASMA,1,DAY  1,1,2000-02-22T13:00:00Z,1,24h POSTDOSE,24
ASTUDY,PC,ASTUDY-0011,3,MAB,UNPRONOUNCAMAB,487.4,ng/ml,487.4,487.4,ng/ml,Night City Labs,PLASMA,1,DAY  2,1,2000-02-23T13:00:00Z,1,48h POSTDOSE,48
ASTUDY,PC,ASTUDY-0011,4,MAB,UNPRONOUNCAMAB,438.6,ng/ml,438.6,438.6,ng/ml,Night City Labs,PLASMA,1,DAY  3,1,2000-02-24T13:00:00Z,1,72h POSTDOSE,72
ASTUDY,PC,ASTUDY-0011,5,MAB,UNPRONOUNCAMAB,401.6,ng/ml,401.6,401.6,ng/ml,Night City Labs,PLASMA,1,DAY  4,1,2000-02-25T13:00:00Z,1,96h POSTDOSE,96
ASTUDY,PC,ASTUDY-0011,6,MAB,UNPRONOUNCAMAB,332,ng/ml,332,332,ng/ml,Night City Labs,PLASMA,1,DAY  7,1,2000-02-28T13:00:00Z,1,168h POSTDOSE,168
ASTUDY,PC,ASTUDY-0011,7,MAB,UNPRONOUNCAMAB,211.9,ng/ml,211.9,211.9,ng/ml,Night City Labs,PLASMA,1,DAY  21,1,2000-03-13T13:00:00Z,1,504h POSTDOSE,504
ASTUDY,PC,ASTUDY-0011,8,MAB,UNPRONOUNCAMAB,175.6,ng/ml,175.6,175.6,ng/ml,Night City Labs,PLASMA,1,DAY  28,1,2000-03-20T13:00:00Z,1,672h POSTDOSE,672
ASTUDY,PC,ASTUDY-0011,9,MAB,UNPRONOUNCAMAB,145.7,ng/ml,145.7,145.7,ng/ml,Night City Labs,PLASMA,1,DAY  35,1,2000-03-27T13:00:00Z,1,840h POSTDOSE,840
ASTUDY,PC,ASTUDY-0011,10,MAB,UNPRONOUNCAMAB,120.8,ng/ml,120.8,120.8,ng/ml,Night City Labs,PLASMA,1,DAY  42,1,2000-04-03T13:00:00Z,1,1008h POSTDOSE,1008
ASTUDY,PC,ASTUDY-0012,1,MAB,UNPRONOUNCAMAB,<BLQ,ng/ml,<BLQ,NA,ng/ml,Night City Labs,PLASMA,1,PREDOSE,1,2000-02-21T13:00:00Z,-1,PREDOSE,0
ASTUDY,PC,ASTUDY-0012,2,MAB,UNPRONOUNCAMAB,579.6,ng/ml,579.6,579.6,ng/ml,Night City Labs,PLASMA,1,DAY  1,1,2000-02-22T13:00:00Z,1,24h POSTDOSE,24
ASTUDY,PC,ASTUDY-0012,3,MAB,UNPRONOUNCAMAB,500.6,ng/ml,500.6,500.6,ng/ml,Night City Labs,PLASMA,1,DAY  2,1,2000-02-23T13:00:00Z,1,48h POSTDOSE,48
ASTUDY,PC,ASTUDY-0012,4,MAB,UNPRONOUNCAMAB,435.6,ng/ml,435.6,435.6,ng/ml,Night City Labs,PLASMA,1,DAY  3,1,2000-02-24T13:00:00Z,1,72h POSTDOSE,72
ASTUDY,PC,ASTUDY-0012,5,MAB,UNPRONOUNCAMAB,381.8,ng/ml,381.8,381.8,ng/ml,Night City Labs,PLASMA,1,DAY  4,1,2000-02-25T13:00:00Z,1,96h POSTDOSE,96
ASTUDY,PC,ASTUDY-0012,6,MAB,UNPRONOUNCAMAB,269.5,ng/ml,269.5,269.5,ng/ml,Night City Labs,PLASMA,1,DAY  7,1,2000-02-28T13:00:00Z,1,168h POSTDOSE,168
ASTUDY,PC,ASTUDY-0012,7,MAB,UNPRONOUNCAMAB,109.8,ng/ml,109.8,109.8,ng/ml,Night City Labs,PLASMA,1,DAY  21,1,2000-03-13T13:00:00Z,1,504h POSTDOSE,504
ASTUDY,PC,ASTUDY-0012,8,MAB,UNPRONOUNCAMAB,85.94,ng/ml,85.94,85.94,ng/ml,Night City Labs,PLASMA,1,DAY  28,1,2000-03-20T13:00:00Z,1,672h POSTDOSE,672
ASTUDY,PC,ASTUDY-0012,9,MAB,UNPRONOUNCAMAB,69.31,ng/ml,69.31,69.31,ng/ml,Night City Labs,PLASMA,1,DAY  35,1,2000-03-27T13:00:00Z,1,840h POSTDOSE,840
ASTUDY,PC,ASTUDY-0012,10,MAB,UNPRONOUNCAMAB,56.4,ng/ml,56.4,56.4,ng/ml,Night City Labs,PLASMA,1,DAY  42,1,2000-04-03T13:00:00Z,1,1008h POSTDOSE,1008
ASTUDY,PC,ASTUDY-0013,1,MAB,UNPRONOUNCAMAB,<BLQ,ng/ml,<BLQ,NA,ng/ml,Night City Labs,PLASMA,1,PREDOSE,1,2000-02-21T13:00:00Z,-1,PREDOSE,0
ASTUDY,PC,ASTUDY-0013,2,MAB,UNPRONOUNCAMAB,693.4,ng/ml,693.4,693.4,ng/ml,Night City Labs,PLASMA,1,DAY  1,1,2000-02-22T13:00:00Z,1,24h POSTDOSE,24
ASTUDY,PC,ASTUDY-0013,3,MAB,UNPRONOUNCAMAB,563.8,ng/ml,563.8,563.8,ng/ml,Night City Labs,PLASMA,1,DAY  2,1,2000-02-23T13:00:00Z,1,48h POSTDOSE,48
ASTUDY,PC,ASTUDY-0013,4,MAB,UNPRONOUNCAMAB,511.2,ng/ml,511.2,511.2,ng/ml,Night City Labs,PLASMA,1,DAY  3,1,2000-02-24T13:00:00Z,1,72h POSTDOSE,72
ASTUDY,PC,ASTUDY-0013,5,MAB,UNPRONOUNCAMAB,483,ng/ml,483,483,ng/ml,Night City Labs,PLASMA,1,DAY  4,1,2000-02-25T13:00:00Z,1,96h POSTDOSE,96
ASTUDY,PC,ASTUDY-0013,6,MAB,UNPRONOUNCAMAB,430,ng/ml,430,430,ng/ml,Night City Labs,PLASMA,1,DAY  7,1,2000-02-28T13:00:00Z,1,168h POSTDOSE,168
ASTUDY,PC,ASTUDY-0013,7,MAB,UNPRONOUNCAMAB,261.5,ng/ml,261.5,261.5,ng/ml,Night City Labs,PLASMA,1,DAY  21,1,2000-03-13T13:00:00Z,1,504h POSTDOSE,504
ASTUDY,PC,ASTUDY-0013,8,MAB,UNPRONOUNCAMAB,204,ng/ml,204,204,ng/ml,Night City Labs,PLASMA,1,DAY  28,1,2000-03-20T13:00:00Z,1,672h POSTDOSE,672
ASTUDY,PC,ASTUDY-0013,9,MAB,UNPRONOUNCAMAB,159.1,ng/ml,159.1,159.1,ng/ml,Night City Labs,PLASMA,1,DAY  35,1,2000-03-27T13:00:00Z,1,840h POSTDOSE,840
ASTUDY,PC,ASTUDY-0013,10,MAB,UNPRONOUNCAMAB,124.1,ng/ml,124.1,124.1,ng/ml,Night City Labs,PLASMA,1,DAY  42,1,2000-04-03T13:00:00Z,1,1008h POSTDOSE,1008
ASTUDY,PC,ASTUDY-0014,1,MAB,UNPRONOUNCAMAB,<BLQ,ng/ml,<BLQ,NA,ng/ml,Night City Labs,PLASMA,1,PREDOSE,1,2000-02-21T13:00:00Z,-1,PREDOSE,0
ASTUDY,PC,ASTUDY-0014,2,MAB,UNPRONOUNCAMAB,528.3,ng/ml,528.3,528.3,ng/ml,Night City Labs,PLASMA,1,DAY  1,1,2000-02-22T13:00:00Z,1,24h POSTDOSE,24
ASTUDY,PC,ASTUDY-0014,3,MAB,UNPRONOUNCAMAB,425.9,ng/ml,425.9,425.9,ng/ml,Night City Labs,PLASMA,1,DAY  2,1,2000-02-23T13:00:00Z,1,48h POSTDOSE,48
ASTUDY,PC,ASTUDY-0014,4,MAB,UNPRONOUNCAMAB,368.7,ng/ml,368.7,368.7,ng/ml,Night City Labs,PLASMA,1,DAY  3,1,2000-02-24T13:00:00Z,1,72h POSTDOSE,72
ASTUDY,PC,ASTUDY-0014,5,MAB,UNPRONOUNCAMAB,334.8,ng/ml,334.8,334.8,ng/ml,Night City Labs,PLASMA,1,DAY  4,1,2000-02-25T13:00:00Z,1,96h POSTDOSE,96
ASTUDY,PC,ASTUDY-0014,6,MAB,UNPRONOUNCAMAB,284.5,ng/ml,284.5,284.5,ng/ml,Night City Labs,PLASMA,1,DAY  7,1,2000-02-28T13:00:00Z,1,168h POSTDOSE,168
ASTUDY,PC,ASTUDY-0014,7,MAB,UNPRONOUNCAMAB,177.8,ng/ml,177.8,177.8,ng/ml,Night City Labs,PLASMA,1,DAY  21,1,2000-03-13T13:00:00Z,1,504h POSTDOSE,504
ASTUDY,PC,ASTUDY-0014,8,MAB,UNPRONOUNCAMAB,141.4,ng/ml,141.4,141.4,ng/ml,Night City Labs,PLASMA,1,DAY  28,1,2000-03-20T13:00:00Z,1,672h POSTDOSE,672
ASTUDY,PC,ASTUDY-0014,9,MAB,UNPRONOUNCAMAB,112.4,ng/ml,112.4,112.4,ng/ml,Night City Labs,PLASMA,1,DAY  35,1,2000-03-27T13:00:00Z,1,840h POSTDOSE,840
ASTUDY,PC,ASTUDY-0014,10,MAB,UNPRONOUNCAMAB,89.41,ng/ml,89.41,89.41,ng/ml,Night City Labs,PLASMA,1,DAY  42,1,2000-04-03T13:00:00Z,1,1008h POSTDOSE,1008
ASTUDY,PC,ASTUDY-0015,1,MAB,UNPRONOUNCAMAB,<BLQ,ng/ml,<BLQ,NA,ng/ml,Night City Labs,PLASMA,1,PREDOSE,1,2000-02-21T13:00:00Z,-1,PREDOSE,0
ASTUDY,PC,ASTUDY-0015,2,MAB,UNPRONOUNCAMAB,849.5,ng/ml,849.5,849.5,ng/ml,Night City Labs,PLASMA,1,DAY  1,1,2000-02-22T13:00:00Z,1,24h POSTDOSE,24
ASTUDY,PC,ASTUDY-0015,3,MAB,UNPRONOUNCAMAB,701.3,ng/ml,701.3,701.3,ng/ml,Night City Labs,PLASMA,1,DAY  2,1,2000-02-23T13:00:00Z,1,48h POSTDOSE,48
ASTUDY,PC,ASTUDY-0015,4,MAB,UNPRONOUNCAMAB,599.3,ng/ml,599.3,599.3,ng/ml,Night City Labs,PLASMA,1,DAY  3,1,2000-02-24T13:00:00Z,1,72h POSTDOSE,72
ASTUDY,PC,ASTUDY-0015,5,MAB,UNPRONOUNCAMAB,528,ng/ml,528,528,ng/ml,Night City Labs,PLASMA,1,DAY  4,1,2000-02-25T13:00:00Z,1,96h POSTDOSE,96
ASTUDY,PC,ASTUDY-0015,6,MAB,UNPRONOUNCAMAB,410.8,ng/ml,410.8,410.8,ng/ml,Night City Labs,PLASMA,1,DAY  7,1,2000-02-28T13:00:00Z,1,168h POSTDOSE,168
ASTUDY,PC,ASTUDY-0015,7,MAB,UNPRONOUNCAMAB,246.3,ng/ml,246.3,246.3,ng/ml,Night City Labs,PLASMA,1,DAY  21,1,2000-03-13T13:00:00Z,1,504h POSTDOSE,504
ASTUDY,PC,ASTUDY-0015,8,MAB,UNPRONOUNCAMAB,198.6,ng/ml,198.6,198.6,ng/ml,Night City Labs,PLASMA,1,DAY  28,1,2000-03-20T13:00:00Z,1,672h POSTDOSE,672
ASTUDY,PC,ASTUDY-0015,9,MAB,UNPRONOUNCAMAB,160.2,ng/ml,160.2,160.2,ng/ml,Night City Labs,PLASMA,1,DAY  35,1,2000-03-27T13:00:00Z,1,840h POSTDOSE,840
ASTUDY,PC,ASTUDY-0015,10,MAB,UNPRONOUNCAMAB,129.2,ng/ml,129.2,129.2,ng/ml,Night City Labs,PLASMA,1,DAY  42,1,2000-04-03T13:00:00Z,1,1008h POSTDOSE,1008
ASTUDY,PC,ASTUDY-0016,1,MAB,UNPRONOUNCAMAB,<BLQ,ng/ml,<BLQ,NA,ng/ml,Night City Labs,PLASMA,1,PREDOSE,1,2000-02-21T13:00:00Z,-1,PREDOSE,0
ASTUDY,PC,ASTUDY-0016,2,MAB,UNPRONOUNCAMAB,512.2,ng/ml,512.2,512.2,ng/ml,Night City Labs,PLASMA,1,DAY  1,1,2000-02-22T13:00:00Z,1,24h POSTDOSE,24
ASTUDY,PC,ASTUDY-0016,3,MAB,UNPRONOUNCAMAB,429.1,ng/ml,429.1,429.1,ng/ml,Night City Labs,PLASMA,1,DAY  2,1,2000-02-23T13:00:00Z,1,48h POSTDOSE,48
ASTUDY,PC,ASTUDY-0016,4,MAB,UNPRONOUNCAMAB,375.7,ng/ml,375.7,375.7,ng/ml,Night City Labs,PLASMA,1,DAY  3,1,2000-02-24T13:00:00Z,1,72h POSTDOSE,72
ASTUDY,PC,ASTUDY-0016,5,MAB,UNPRONOUNCAMAB,339.8,ng/ml,339.8,339.8,ng/ml,Night City Labs,PLASMA,1,DAY  4,1,2000-02-25T13:00:00Z,1,96h POSTDOSE,96
ASTUDY,PC,ASTUDY-0016,6,MAB,UNPRONOUNCAMAB,280.5,ng/ml,280.5,280.5,ng/ml,Night City Labs,PLASMA,1,DAY  7,1,2000-02-28T13:00:00Z,1,168h POSTDOSE,168
ASTUDY,PC,ASTUDY-0016,7,MAB,UNPRONOUNCAMAB,165.1,ng/ml,165.1,165.1,ng/ml,Night City Labs,PLASMA,1,DAY  21,1,2000-03-13T13:00:00Z,1,504h POSTDOSE,504
ASTUDY,PC,ASTUDY-0016,8,MAB,UNPRONOUNCAMAB,128.3,ng/ml,128.3,128.3,ng/ml,Night City Labs,PLASMA,1,DAY  28,1,2000-03-20T13:00:00Z,1,672h POSTDOSE,672
ASTUDY,PC,ASTUDY-0016,9,MAB,UNPRONOUNCAMAB,99.7,ng/ml,99.7,99.7,ng/ml,Night City Labs,PLASMA,1,DAY  35,1,2000-03-27T13:00:00Z,1,840h POSTDOSE,840
ASTUDY,PC,ASTUDY-0016,10,MAB,UNPRONOUNCAMAB,77.49,ng/ml,77.49,77.49,ng/ml,Night City Labs,PLASMA,1,DAY  42,1,2000-04-03T13:00:00Z,1,1008h POSTDOSE,1008
ASTUDY,PC,ASTUDY-0017,1,MAB,UNPRONOUNCAMAB,<BLQ,ng/ml,<BLQ,NA,ng/ml,Night City Labs,PLASMA,1,PREDOSE,1,2000-02-21T13:00:00Z,-1,PREDOSE,0
ASTUDY,PC,ASTUDY-0017,2,MAB,UNPRONOUNCAMAB,819.9,ng/ml,819.9,819.9,ng/ml,Night City Labs,PLASMA,1,DAY  1,1,2000-02-22T13:00:00Z,1,24h POSTDOSE,24
ASTUDY,PC,ASTUDY-0017,3,MAB,UNPRONOUNCAMAB,701.2,ng/ml,701.2,701.2,ng/ml,Night City Labs,PLASMA,1,DAY  2,1,2000-02-23T13:00:00Z,1,48h POSTDOSE,48
ASTUDY,PC,ASTUDY-0017,4,MAB,UNPRONOUNCAMAB,615.9,ng/ml,615.9,615.9,ng/ml,Night City Labs,PLASMA,1,DAY  3,1,2000-02-24T13:00:00Z,1,72h POSTDOSE,72
ASTUDY,PC,ASTUDY-0017,5,MAB,UNPRONOUNCAMAB,553.7,ng/ml,553.7,553.7,ng/ml,Night City Labs,PLASMA,1,DAY  4,1,2000-02-25T13:00:00Z,1,96h POSTDOSE,96
ASTUDY,PC,ASTUDY-0017,6,MAB,UNPRONOUNCAMAB,444.9,ng/ml,444.9,444.9,ng/ml,Night City Labs,PLASMA,1,DAY  7,1,2000-02-28T13:00:00Z,1,168h POSTDOSE,168
ASTUDY,PC,ASTUDY-0017,7,MAB,UNPRONOUNCAMAB,281.6,ng/ml,281.6,281.6,ng/ml,Night City Labs,PLASMA,1,DAY  21,1,2000-03-13T13:00:00Z,1,504h POSTDOSE,504
ASTUDY,PC,ASTUDY-0017,8,MAB,UNPRONOUNCAMAB,233.5,ng/ml,233.5,233.5,ng/ml,Night City Labs,PLASMA,1,DAY  28,1,2000-03-20T13:00:00Z,1,672h POSTDOSE,672
ASTUDY,PC,ASTUDY-0017,9,MAB,UNPRONOUNCAMAB,193.7,ng/ml,193.7,193.7,ng/ml,Night City Labs,PLASMA,1,DAY  35,1,2000-03-27T13:00:00Z,1,840h POSTDOSE,840
ASTUDY,PC,ASTUDY-0017,10,MAB,UNPRONOUNCAMAB,160.7,ng/ml,160.7,160.7,ng/ml,Night City Labs,PLASMA,1,DAY  42,1,2000-04-03T13:00:00Z,1,1008h POSTDOSE,1008
ASTUDY,PC,ASTUDY-0018,1,MAB,UNPRONOUNCAMAB,<BLQ,ng/ml,<BLQ,NA,ng/ml,Night City Labs,PLASMA,1,PREDOSE,1,2000-02-21T13:00:00Z,-1,PREDOSE,0
ASTUDY,PC,ASTUDY-0018,2,MAB,UNPRONOUNCAMAB,512.1,ng/ml,512.1,512.1,ng/ml,Night City Labs,PLASMA,1,DAY  1,1,2000-02-22T13:00:00Z,1,24h POSTDOSE,24
ASTUDY,PC,ASTUDY-0018,3,MAB,UNPRONOUNCAMAB,459.8,ng/ml,459.8,459.8,ng/ml,Night City Labs,PLASMA,1,DAY  2,1,2000-02-23T13:00:00Z,1,48h POSTDOSE,48
ASTUDY,PC,ASTUDY-0018,4,MAB,UNPRONOUNCAMAB,416,ng/ml,416,416,ng/ml,Night City Labs,PLASMA,1,DAY  3,1,2000-02-24T13:00:00Z,1,72h POSTDOSE,72
ASTUDY,PC,ASTUDY-0018,5,MAB,UNPRONOUNCAMAB,379.1,ng/ml,379.1,379.1,ng/ml,Night City Labs,PLASMA,1,DAY  4,1,2000-02-25T13:00:00Z,1,96h POSTDOSE,96
ASTUDY,PC,ASTUDY-0018,6,MAB,UNPRONOUNCAMAB,298,ng/ml,298,298,ng/ml,Night City Labs,PLASMA,1,DAY  7,1,2000-02-28T13:00:00Z,1,168h POSTDOSE,168
ASTUDY,PC,ASTUDY-0018,7,MAB,UNPRONOUNCAMAB,148.4,ng/ml,148.4,148.4,ng/ml,Night City Labs,PLASMA,1,DAY  21,1,2000-03-13T13:00:00Z,1,504h POSTDOSE,504
ASTUDY,PC,ASTUDY-0018,8,MAB,UNPRONOUNCAMAB,114.7,ng/ml,114.7,114.7,ng/ml,Night City Labs,PLASMA,1,DAY  28,1,2000-03-20T13:00:00Z,1,672h POSTDOSE,672
ASTUDY,PC,ASTUDY-0018,9,MAB,UNPRONOUNCAMAB,89.55,ng/ml,89.55,89.55,ng/ml,Night City Labs,PLASMA,1,DAY  35,1,2000-03-27T13:00:00Z,1,840h POSTDOSE,840
ASTUDY,PC,ASTUDY-0018,10,MAB,UNPRONOUNCAMAB,70.16,ng/ml,70.16,70.16,ng/ml,Night City Labs,PLASMA,1,DAY  42,1,2000-04-03T13:00:00Z,1,1008h POSTDOSE,1008
ASTUDY,PC,ASTUDY-0019,1,MAB,UNPRONOUNCAMAB,<BLQ,ng/ml,<BLQ,NA,ng/ml,Night City Labs,PLASMA,1,PREDOSE,1,2000-02-21T13:00:00Z,-1,PREDOSE,0
ASTUDY,PC,ASTUDY-0019,2,MAB,UNPRONOUNCAMAB,788.6,ng/ml,788.6,788.6,ng/ml,Night City Labs,PLASMA,1,DAY  1,1,2000-02-22T13:00:00Z,1,24h POSTDOSE,24
ASTUDY,PC,ASTUDY-0019,3,MAB,UNPRONOUNCAMAB,629.3,ng/ml,629.3,629.3,ng/ml,Night City Labs,PLASMA,1,DAY  2,1,2000-02-23T13:00:00Z,1,48h POSTDOSE,48
ASTUDY,PC,ASTUDY-0019,4,MAB,UNPRONOUNCAMAB,533.8,ng/ml,533.8,533.8,ng/ml,Night City Labs,PLASMA,1,DAY  3,1,2000-02-24T13:00:00Z,1,72h POSTDOSE,72
ASTUDY,PC,ASTUDY-0019,5,MAB,UNPRONOUNCAMAB,474.5,ng/ml,474.5,474.5,ng/ml,Night City Labs,PLASMA,1,DAY  4,1,2000-02-25T13:00:00Z,1,96h POSTDOSE,96
ASTUDY,PC,ASTUDY-0019,6,MAB,UNPRONOUNCAMAB,389.2,ng/ml,389.2,389.2,ng/ml,Night City Labs,PLASMA,1,DAY  7,1,2000-02-28T13:00:00Z,1,168h POSTDOSE,168
ASTUDY,PC,ASTUDY-0019,7,MAB,UNPRONOUNCAMAB,249.3,ng/ml,249.3,249.3,ng/ml,Night City Labs,PLASMA,1,DAY  21,1,2000-03-13T13:00:00Z,1,504h POSTDOSE,504
ASTUDY,PC,ASTUDY-0019,8,MAB,UNPRONOUNCAMAB,202.4,ng/ml,202.4,202.4,ng/ml,Night City Labs,PLASMA,1,DAY  28,1,2000-03-20T13:00:00Z,1,672h POSTDOSE,672
ASTUDY,PC,ASTUDY-0019,9,MAB,UNPRONOUNCAMAB,164.3,ng/ml,164.3,164.3,ng/ml,Night City Labs,PLASMA,1,DAY  35,1,2000-03-27T13:00:00Z,1,840h POSTDOSE,840
ASTUDY,PC,ASTUDY-0019,10,MAB,UNPRONOUNCAMAB,133.4,ng/ml,133.4,133.4,ng/ml,Night City Labs,PLASMA,1,DAY  42,1,2000-04-03T13:00:00Z,1,1008h POSTDOSE,1008
ASTUDY,PC,ASTUDY-0020,1,MAB,UNPRONOUNCAMAB,<BLQ,ng/ml,<BLQ,NA,ng/ml,Night City Labs,PLASMA,1,PREDOSE,1,2000-02-21T13:00:00Z,-1,PREDOSE,0
ASTUDY,PC,ASTUDY-0020,2,MAB,UNPRONOUNCAMAB,611.2,ng/ml,611.2,611.2,ng/ml,Night City Labs,PLASMA,1,DAY  1,1,2000-02-22T13:00:00Z,1,24h POSTDOSE,24
ASTUDY,PC,ASTUDY-0020,3,MAB,UNPRONOUNCAMAB,534.7,ng/ml,534.7,534.7,ng/ml,Night City Labs,PLASMA,1,DAY  2,1,2000-02-23T13:00:00Z,1,48h POSTDOSE,48
ASTUDY,PC,ASTUDY-0020,4,MAB,UNPRONOUNCAMAB,473.6,ng/ml,473.6,473.6,ng/ml,Night City Labs,PLASMA,1,DAY  3,1,2000-02-24T13:00:00Z,1,72h POSTDOSE,72
ASTUDY,PC,ASTUDY-0020,5,MAB,UNPRONOUNCAMAB,424.5,ng/ml,424.5,424.5,ng/ml,Night City Labs,PLASMA,1,DAY  4,1,2000-02-25T13:00:00Z,1,96h POSTDOSE,96
ASTUDY,PC,ASTUDY-0020,6,MAB,UNPRONOUNCAMAB,325.8,ng/ml,325.8,325.8,ng/ml,Night City Labs,PLASMA,1,DAY  7,1,2000-02-28T13:00:00Z,1,168h POSTDOSE,168
ASTUDY,PC,ASTUDY-0020,7,MAB,UNPRONOUNCAMAB,175.4,ng/ml,175.4,175.4,ng/ml,Night City Labs,PLASMA,1,DAY  21,1,2000-03-13T13:00:00Z,1,504h POSTDOSE,504
ASTUDY,PC,ASTUDY-0020,8,MAB,UNPRONOUNCAMAB,142.1,ng/ml,142.1,142.1,ng/ml,Night City Labs,PLASMA,1,DAY  28,1,2000-03-20T13:00:00Z,1,672h POSTDOSE,672
ASTUDY,PC,ASTUDY-0020,9,MAB,UNPRONOUNCAMAB,116,ng/ml,116,116,ng/ml,Night City Labs,PLASMA,1,DAY  35,1,2000-03-27T13:00:00Z,1,840h POSTDOSE,840
ASTUDY,PC,ASTUDY-0020,10,MAB,UNPRONOUNCAMAB,94.77,ng/ml,94.77,94.77,ng/ml,Night City Labs,PLASMA,1,DAY  42,1,2000-04-03T13:00:00Z,1,1008h POSTDOSE,1008
ASTUDY,PC,ASTUDY-0021,1,MAB,UNPRONOUNCAMAB,<BLQ,ng/ml,<BLQ,NA,ng/ml,Night City Labs,PLASMA,1,PREDOSE,1,2000-02-21T13:00:00Z,-1,PREDOSE,0
ASTUDY,PC,ASTUDY-0021,2,MAB,UNPRONOUNCAMAB,2999,ng/ml,2999,2999,ng/ml,Night City Labs,PLASMA,1,DAY  1,1,2000-02-22T13:00:00Z,1,24h POSTDOSE,24
ASTUDY,PC,ASTUDY-0021,3,MAB,UNPRONOUNCAMAB,2541,ng/ml,2541,2541,ng/ml,Night City Labs,PLASMA,1,DAY  2,1,2000-02-23T13:00:00Z,1,48h POSTDOSE,48
ASTUDY,PC,ASTUDY-0021,4,MAB,UNPRONOUNCAMAB,2213,ng/ml,2213,2213,ng/ml,Night City Labs,PLASMA,1,DAY  3,1,2000-02-24T13:00:00Z,1,72h POSTDOSE,72
ASTUDY,PC,ASTUDY-0021,5,MAB,UNPRONOUNCAMAB,1974,ng/ml,1974,1974,ng/ml,Night City Labs,PLASMA,1,DAY  4,1,2000-02-25T13:00:00Z,1,96h POSTDOSE,96
ASTUDY,PC,ASTUDY-0021,6,MAB,UNPRONOUNCAMAB,1552,ng/ml,1552,1552,ng/ml,Night City Labs,PLASMA,1,DAY  7,1,2000-02-28T13:00:00Z,1,168h POSTDOSE,168
ASTUDY,PC,ASTUDY-0021,7,MAB,UNPRONOUNCAMAB,879,ng/ml,879,879,ng/ml,Night City Labs,PLASMA,1,DAY  21,1,2000-03-13T13:00:00Z,1,504h POSTDOSE,504
ASTUDY,PC,ASTUDY-0021,8,MAB,UNPRONOUNCAMAB,687.6,ng/ml,687.6,687.6,ng/ml,Night City Labs,PLASMA,1,DAY  28,1,2000-03-20T13:00:00Z,1,672h POSTDOSE,672
ASTUDY,PC,ASTUDY-0021,9,MAB,UNPRONOUNCAMAB,538.2,ng/ml,538.2,538.2,ng/ml,Night City Labs,PLASMA,1,DAY  35,1,2000-03-27T13:00:00Z,1,840h POSTDOSE,840
ASTUDY,PC,ASTUDY-0021,10,MAB,UNPRONOUNCAMAB,421.2,ng/ml,421.2,421.2,ng/ml,Night City Labs,PLASMA,1,DAY  42,1,2000-04-03T13:00:00Z,1,1008h POSTDOSE,1008
ASTUDY,PC,ASTUDY-0022,1,MAB,UNPRONOUNCAMAB,<BLQ,ng/ml,<BLQ,NA,ng/ml,Night City Labs,PLASMA,1,PREDOSE,1,2000-02-21T13:00:00Z,-1,PREDOSE,0
ASTUDY,PC,ASTUDY-0022,2,MAB,UNPRONOUNCAMAB,2253,ng/ml,2253,2253,ng/ml,Night City Labs,PLASMA,1,DAY  1,1,2000-02-22T13:00:00Z,1,24h POSTDOSE,24
ASTUDY,PC,ASTUDY-0022,3,MAB,UNPRONOUNCAMAB,1759,ng/ml,1759,1759,ng/ml,Night City Labs,PLASMA,1,DAY  2,1,2000-02-23T13:00:00Z,1,48h POSTDOSE,48
ASTUDY,PC,ASTUDY-0022,4,MAB,UNPRONOUNCAMAB,1509,ng/ml,1509,1509,ng/ml,Night City Labs,PLASMA,1,DAY  3,1,2000-02-24T13:00:00Z,1,72h POSTDOSE,72
ASTUDY,PC,ASTUDY-0022,5,MAB,UNPRONOUNCAMAB,1374,ng/ml,1374,1374,ng/ml,Night City Labs,PLASMA,1,DAY  4,1,2000-02-25T13:00:00Z,1,96h POSTDOSE,96
ASTUDY,PC,ASTUDY-0022,6,MAB,UNPRONOUNCAMAB,1192,ng/ml,1192,1192,ng/ml,Night City Labs,PLASMA,1,DAY  7,1,2000-02-28T13:00:00Z,1,168h POSTDOSE,168
ASTUDY,PC,ASTUDY-0022,7,MAB,UNPRONOUNCAMAB,796.9,ng/ml,796.9,796.9,ng/ml,Night City Labs,PLASMA,1,DAY  21,1,2000-03-13T13:00:00Z,1,504h POSTDOSE,504
ASTUDY,PC,ASTUDY-0022,8,MAB,UNPRONOUNCAMAB,654,ng/ml,654,654,ng/ml,Night City Labs,PLASMA,1,DAY  28,1,2000-03-20T13:00:00Z,1,672h POSTDOSE,672
ASTUDY,PC,ASTUDY-0022,9,MAB,UNPRONOUNCAMAB,536.7,ng/ml,536.7,536.7,ng/ml,Night City Labs,PLASMA,1,DAY  35,1,2000-03-27T13:00:00Z,1,840h POSTDOSE,840
ASTUDY,PC,ASTUDY-0022,10,MAB,UNPRONOUNCAMAB,440.4,ng/ml,440.4,440.4,ng/ml,Night City Labs,PLASMA,1,DAY  42,1,2000-04-03T13:00:00Z,1,1008h POSTDOSE,1008
ASTUDY,PC,ASTUDY-0023,1,MAB,UNPRONOUNCAMAB,<BLQ,ng/ml,<BLQ,NA,ng/ml,Night City Labs,PLASMA,1,PREDOSE,1,2000-02-21T13:00:00Z,-1,PREDOSE,0
ASTUDY,PC,ASTUDY-0023,2,MAB,UNPRONOUNCAMAB,1410,ng/ml,1410,1410,ng/ml,Night City Labs,PLASMA,1,DAY  1,1,2000-02-22T13:00:00Z,1,24h POSTDOSE,24
ASTUDY,PC,ASTUDY-0023,3,MAB,UNPRONOUNCAMAB,1231,ng/ml,1231,1231,ng/ml,Night City Labs,PLASMA,1,DAY  2,1,2000-02-23T13:00:00Z,1,48h POSTDOSE,48
ASTUDY,PC,ASTUDY-0023,4,MAB,UNPRONOUNCAMAB,1084,ng/ml,1084,1084,ng/ml,Night City Labs,PLASMA,1,DAY  3,1,2000-02-24T13:00:00Z,1,72h POSTDOSE,72
ASTUDY,PC,ASTUDY-0023,5,MAB,UNPRONOUNCAMAB,963.2,ng/ml,963.2,963.2,ng/ml,Night City Labs,PLASMA,1,DAY  4,1,2000-02-25T13:00:00Z,1,96h POSTDOSE,96
ASTUDY,PC,ASTUDY-0023,6,MAB,UNPRONOUNCAMAB,712.1,ng/ml,712.1,712.1,ng/ml,Night City Labs,PLASMA,1,DAY  7,1,2000-02-28T13:00:00Z,1,168h POSTDOSE,168
ASTUDY,PC,ASTUDY-0023,7,MAB,UNPRONOUNCAMAB,321,ng/ml,321,321,ng/ml,Night City Labs,PLASMA,1,DAY  21,1,2000-03-13T13:00:00Z,1,504h POSTDOSE,504
ASTUDY,PC,ASTUDY-0023,8,MAB,UNPRONOUNCAMAB,245.5,ng/ml,245.5,245.5,ng/ml,Night City Labs,PLASMA,1,DAY  28,1,2000-03-20T13:00:00Z,1,672h POSTDOSE,672
ASTUDY,PC,ASTUDY-0023,9,MAB,UNPRONOUNCAMAB,190.3,ng/ml,190.3,190.3,ng/ml,Night City Labs,PLASMA,1,DAY  35,1,2000-03-27T13:00:00Z,1,840h POSTDOSE,840
ASTUDY,PC,ASTUDY-0023,10,MAB,UNPRONOUNCAMAB,148.1,ng/ml,148.1,148.1,ng/ml,Night City Labs,PLASMA,1,DAY  42,1,2000-04-03T13:00:00Z,1,1008h POSTDOSE,1008
ASTUDY,PC,ASTUDY-0024,1,MAB,UNPRONOUNCAMAB,<BLQ,ng/ml,<BLQ,NA,ng/ml,Night City Labs,PLASMA,1,PREDOSE,1,2000-02-21T13:00:00Z,-1,PREDOSE,0
ASTUDY,PC,ASTUDY-0024,2,MAB,UNPRONOUNCAMAB,1673,ng/ml,1673,1673,ng/ml,Night City Labs,PLASMA,1,DAY  1,1,2000-02-22T13:00:00Z,1,24h POSTDOSE,24
ASTUDY,PC,ASTUDY-0024,3,MAB,UNPRONOUNCAMAB,1445,ng/ml,1445,1445,ng/ml,Night City Labs,PLASMA,1,DAY  2,1,2000-02-23T13:00:00Z,1,48h POSTDOSE,48
ASTUDY,PC,ASTUDY-0024,4,MAB,UNPRONOUNCAMAB,1325,ng/ml,1325,1325,ng/ml,Night City Labs,PLASMA,1,DAY  3,1,2000-02-24T13:00:00Z,1,72h POSTDOSE,72
ASTUDY,PC,ASTUDY-0024,5,MAB,UNPRONOUNCAMAB,1252,ng/ml,1252,1252,ng/ml,Night City Labs,PLASMA,1,DAY  4,1,2000-02-25T13:00:00Z,1,96h POSTDOSE,96
ASTUDY,PC,ASTUDY-0024,6,MAB,UNPRONOUNCAMAB,1118,ng/ml,1118,1118,ng/ml,Night City Labs,PLASMA,1,DAY  7,1,2000-02-28T13:00:00Z,1,168h POSTDOSE,168
ASTUDY,PC,ASTUDY-0024,7,MAB,UNPRONOUNCAMAB,718.9,ng/ml,718.9,718.9,ng/ml,Night City Labs,PLASMA,1,DAY  21,1,2000-03-13T13:00:00Z,1,504h POSTDOSE,504
ASTUDY,PC,ASTUDY-0024,8,MAB,UNPRONOUNCAMAB,576.8,ng/ml,576.8,576.8,ng/ml,Night City Labs,PLASMA,1,DAY  28,1,2000-03-20T13:00:00Z,1,672h POSTDOSE,672
ASTUDY,PC,ASTUDY-0024,9,MAB,UNPRONOUNCAMAB,462.9,ng/ml,462.9,462.9,ng/ml,Night City Labs,PLASMA,1,DAY  35,1,2000-03-27T13:00:00Z,1,840h POSTDOSE,840
ASTUDY,PC,ASTUDY-0024,10,MAB,UNPRONOUNCAMAB,371.4,ng/ml,371.4,371.4,ng/ml,Night City Labs,PLASMA,1,DAY  42,1,2000-04-03T13:00:00Z,1,1008h POSTDOSE,1008
ASTUDY,PC,ASTUDY-0025,1,MAB,UNPRONOUNCAMAB,<BLQ,ng/ml,<BLQ,NA,ng/ml,Night City Labs,PLASMA,1,PREDOSE,1,2000-02-21T13:00:00Z,-1,PREDOSE,0
ASTUDY,PC,ASTUDY-0025,2,MAB,UNPRONOUNCAMAB,1531,ng/ml,1531,1531,ng/ml,Night City Labs,PLASMA,1,DAY  1,1,2000-02-22T13:00:00Z,1,24h POSTDOSE,24
ASTUDY,PC,ASTUDY-0025,3,MAB,UNPRONOUNCAMAB,1320,ng/ml,1320,1320,ng/ml,Night City Labs,PLASMA,1,DAY  2,1,2000-02-23T13:00:00Z,1,48h POSTDOSE,48
ASTUDY,PC,ASTUDY-0025,4,MAB,UNPRONOUNCAMAB,1144,ng/ml,1144,1144,ng/ml,Night City Labs,PLASMA,1,DAY  3,1,2000-02-24T13:00:00Z,1,72h POSTDOSE,72
ASTUDY,PC,ASTUDY-0025,5,MAB,UNPRONOUNCAMAB,995.7,ng/ml,995.7,995.7,ng/ml,Night City Labs,PLASMA,1,DAY  4,1,2000-02-25T13:00:00Z,1,96h POSTDOSE,96
ASTUDY,PC,ASTUDY-0025,6,MAB,UNPRONOUNCAMAB,678,ng/ml,678,678,ng/ml,Night City Labs,PLASMA,1,DAY  7,1,2000-02-28T13:00:00Z,1,168h POSTDOSE,168
ASTUDY,PC,ASTUDY-0025,7,MAB,UNPRONOUNCAMAB,208.8,ng/ml,208.8,208.8,ng/ml,Night City Labs,PLASMA,1,DAY  21,1,2000-03-13T13:00:00Z,1,504h POSTDOSE,504
ASTUDY,PC,ASTUDY-0025,8,MAB,UNPRONOUNCAMAB,147.5,ng/ml,147.5,147.5,ng/ml,Night City Labs,PLASMA,1,DAY  28,1,2000-03-20T13:00:00Z,1,672h POSTDOSE,672
ASTUDY,PC,ASTUDY-0025,9,MAB,UNPRONOUNCAMAB,110.1,ng/ml,110.1,110.1,ng/ml,Night City Labs,PLASMA,1,DAY  35,1,2000-03-27T13:00:00Z,1,840h POSTDOSE,840
ASTUDY,PC,ASTUDY-0025,10,MAB,UNPRONOUNCAMAB,83.9,ng/ml,83.9,83.9,ng/ml,Night City Labs,PLASMA,1,DAY  42,1,2000-04-03T13:00:00Z,1,1008h POSTDOSE,1008
ASTUDY,PC,ASTUDY-0026,1,MAB,UNPRONOUNCAMAB,<BLQ,ng/ml,<BLQ,NA,ng/ml,Night City Labs,PLASMA,1,PREDOSE,1,2000-02-21T13:00:00Z,-1,PREDOSE,0
ASTUDY,PC,ASTUDY-0026,2,MAB,UNPRONOUNCAMAB,2159,ng/ml,2159,2159,ng/ml,Night City Labs,PLASMA,1,DAY  1,1,2000-02-22T13:00:00Z,1,24h POSTDOSE,24
ASTUDY,PC,ASTUDY-0026,3,MAB,UNPRONOUNCAMAB,1819,ng/ml,1819,1819,ng/ml,Night City Labs,PLASMA,1,DAY  2,1,2000-02-23T13:00:00Z,1,48h POSTDOSE,48
ASTUDY,PC,ASTUDY-0026,4,MAB,UNPRONOUNCAMAB,1643,ng/ml,1643,1643,ng/ml,Night City Labs,PLASMA,1,DAY  3,1,2000-02-24T13:00:00Z,1,72h POSTDOSE,72
ASTUDY,PC,ASTUDY-0026,5,MAB,UNPRONOUNCAMAB,1536,ng/ml,1536,1536,ng/ml,Night City Labs,PLASMA,1,DAY  4,1,2000-02-25T13:00:00Z,1,96h POSTDOSE,96
ASTUDY,PC,ASTUDY-0026,6,MAB,UNPRONOUNCAMAB,1338,ng/ml,1338,1338,ng/ml,Night City Labs,PLASMA,1,DAY  7,1,2000-02-28T13:00:00Z,1,168h POSTDOSE,168
ASTUDY,PC,ASTUDY-0026,7,MAB,UNPRONOUNCAMAB,770.9,ng/ml,770.9,770.9,ng/ml,Night City Labs,PLASMA,1,DAY  21,1,2000-03-13T13:00:00Z,1,504h POSTDOSE,504
ASTUDY,PC,ASTUDY-0026,8,MAB,UNPRONOUNCAMAB,585.5,ng/ml,585.5,585.5,ng/ml,Night City Labs,PLASMA,1,DAY  28,1,2000-03-20T13:00:00Z,1,672h POSTDOSE,672
ASTUDY,PC,ASTUDY-0026,9,MAB,UNPRONOUNCAMAB,444.7,ng/ml,444.7,444.7,ng/ml,Night City Labs,PLASMA,1,DAY  35,1,2000-03-27T13:00:00Z,1,840h POSTDOSE,840
ASTUDY,PC,ASTUDY-0026,10,MAB,UNPRONOUNCAMAB,337.8,ng/ml,337.8,337.8,ng/ml,Night City Labs,PLASMA,1,DAY  42,1,2000-04-03T13:00:00Z,1,1008h POSTDOSE,1008
ASTUDY,PC,ASTUDY-0027,1,MAB,UNPRONOUNCAMAB,<BLQ,ng/ml,<BLQ,NA,ng/ml,Night City Labs,PLASMA,1,PREDOSE,1,2000-02-21T13:00:00Z,-1,PREDOSE,0
ASTUDY,PC,ASTUDY-0027,2,MAB,UNPRONOUNCAMAB,1437,ng/ml,1437,1437,ng/ml,Night City Labs,PLASMA,1,DAY  1,1,2000-02-22T13:00:00Z,1,24h POSTDOSE,24
ASTUDY,PC,ASTUDY-0027,3,MAB,UNPRONOUNCAMAB,1299,ng/ml,1299,1299,ng/ml,Night City Labs,PLASMA,1,DAY  2,1,2000-02-23T13:00:00Z,1,48h POSTDOSE,48
ASTUDY,PC,ASTUDY-0027,4,MAB,UNPRONOUNCAMAB,1212,ng/ml,1212,1212,ng/ml,Night City Labs,PLASMA,1,DAY  3,1,2000-02-24T13:00:00Z,1,72h POSTDOSE,72
ASTUDY,PC,ASTUDY-0027,5,MAB,UNPRONOUNCAMAB,1153,ng/ml,1153,1153,ng/ml,Night City Labs,PLASMA,1,DAY  4,1,2000-02-25T13:00:00Z,1,96h POSTDOSE,96
ASTUDY,PC,ASTUDY-0027,6,MAB,UNPRONOUNCAMAB,1048,ng/ml,1048,1048,ng/ml,Night City Labs,PLASMA,1,DAY  7,1,2000-02-28T13:00:00Z,1,168h POSTDOSE,168
ASTUDY,PC,ASTUDY-0027,7,MAB,UNPRONOUNCAMAB,764.9,ng/ml,764.9,764.9,ng/ml,Night City Labs,PLASMA,1,DAY  21,1,2000-03-13T13:00:00Z,1,504h POSTDOSE,504
ASTUDY,PC,ASTUDY-0027,8,MAB,UNPRONOUNCAMAB,655.8,ng/ml,655.8,655.8,ng/ml,Night City Labs,PLASMA,1,DAY  28,1,2000-03-20T13:00:00Z,1,672h POSTDOSE,672
ASTUDY,PC,ASTUDY-0027,9,MAB,UNPRONOUNCAMAB,562.2,ng/ml,562.2,562.2,ng/ml,Night City Labs,PLASMA,1,DAY  35,1,2000-03-27T13:00:00Z,1,840h POSTDOSE,840
ASTUDY,PC,ASTUDY-0027,10,MAB,UNPRONOUNCAMAB,482,ng/ml,482,482,ng/ml,Night City Labs,PLASMA,1,DAY  42,1,2000-04-03T13:00:00Z,1,1008h POSTDOSE,1008
ASTUDY,PC,ASTUDY-0028,1,MAB,UNPRONOUNCAMAB,<BLQ,ng/ml,<BLQ,NA,ng/ml,Night City Labs,PLASMA,1,PREDOSE,1,2000-02-21T13:00:00Z,-1,PREDOSE,0
ASTUDY,PC,ASTUDY-0028,2,MAB,UNPRONOUNCAMAB,1348,ng/ml,1348,1348,ng/ml,Night City Labs,PLASMA,1,DAY  1,1,2000-02-22T13:00:00Z,1,24h POSTDOSE,24
ASTUDY,PC,ASTUDY-0028,3,MAB,UNPRONOUNCAMAB,1091,ng/ml,1091,1091,ng/ml,Night City Labs,PLASMA,1,DAY  2,1,2000-02-23T13:00:00Z,1,48h POSTDOSE,48
ASTUDY,PC,ASTUDY-0028,4,MAB,UNPRONOUNCAMAB,950.2,ng/ml,950.2,950.2,ng/ml,Night City Labs,PLASMA,1,DAY  3,1,2000-02-24T13:00:00Z,1,72h POSTDOSE,72
ASTUDY,PC,ASTUDY-0028,5,MAB,UNPRONOUNCAMAB,866.2,ng/ml,866.2,866.2,ng/ml,Night City Labs,PLASMA,1,DAY  4,1,2000-02-25T13:00:00Z,1,96h POSTDOSE,96
ASTUDY,PC,ASTUDY-0028,6,MAB,UNPRONOUNCAMAB,732.2,ng/ml,732.2,732.2,ng/ml,Night City Labs,PLASMA,1,DAY  7,1,2000-02-28T13:00:00Z,1,168h POSTDOSE,168
ASTUDY,PC,ASTUDY-0028,7,MAB,UNPRONOUNCAMAB,414.9,ng/ml,414.9,414.9,ng/ml,Night City Labs,PLASMA,1,DAY  21,1,2000-03-13T13:00:00Z,1,504h POSTDOSE,504
ASTUDY,PC,ASTUDY-0028,8,MAB,UNPRONOUNCAMAB,313.5,ng/ml,313.5,313.5,ng/ml,Night City Labs,PLASMA,1,DAY  28,1,2000-03-20T13:00:00Z,1,672h POSTDOSE,672
ASTUDY,PC,ASTUDY-0028,9,MAB,UNPRONOUNCAMAB,236.8,ng/ml,236.8,236.8,ng/ml,Night City Labs,PLASMA,1,DAY  35,1,2000-03-27T13:00:00Z,1,840h POSTDOSE,840
ASTUDY,PC,ASTUDY-0028,10,MAB,UNPRONOUNCAMAB,178.9,ng/ml,178.9,178.9,ng/ml,Night City Labs,PLASMA,1,DAY  42,1,2000-04-03T13:00:00Z,1,1008h POSTDOSE,1008
ASTUDY,PC,ASTUDY-0029,1,MAB,UNPRONOUNCAMAB,<BLQ,ng/ml,<BLQ,NA,ng/ml,Night City Labs,PLASMA,1,PREDOSE,1,2000-02-21T13:00:00Z,-1,PREDOSE,0
ASTUDY,PC,ASTUDY-0029,2,MAB,UNPRONOUNCAMAB,2246,ng/ml,2246,2246,ng/ml,Night City Labs,PLASMA,1,DAY  1,1,2000-02-22T13:00:00Z,1,24h POSTDOSE,24
ASTUDY,PC,ASTUDY-0029,3,MAB,UNPRONOUNCAMAB,1845,ng/ml,1845,1845,ng/ml,Night City Labs,PLASMA,1,DAY  2,1,2000-02-23T13:00:00Z,1,48h POSTDOSE,48
ASTUDY,PC,ASTUDY-0029,4,MAB,UNPRONOUNCAMAB,1681,ng/ml,1681,1681,ng/ml,Night City Labs,PLASMA,1,DAY  3,1,2000-02-24T13:00:00Z,1,72h POSTDOSE,72
ASTUDY,PC,ASTUDY-0029,5,MAB,UNPRONOUNCAMAB,1588,ng/ml,1588,1588,ng/ml,Night City Labs,PLASMA,1,DAY  4,1,2000-02-25T13:00:00Z,1,96h POSTDOSE,96
ASTUDY,PC,ASTUDY-0029,6,MAB,UNPRONOUNCAMAB,1394,ng/ml,1394,1394,ng/ml,Night City Labs,PLASMA,1,DAY  7,1,2000-02-28T13:00:00Z,1,168h POSTDOSE,168
ASTUDY,PC,ASTUDY-0029,7,MAB,UNPRONOUNCAMAB,783.6,ng/ml,783.6,783.6,ng/ml,Night City Labs,PLASMA,1,DAY  21,1,2000-03-13T13:00:00Z,1,504h POSTDOSE,504
ASTUDY,PC,ASTUDY-0029,8,MAB,UNPRONOUNCAMAB,587.6,ng/ml,587.6,587.6,ng/ml,Night City Labs,PLASMA,1,DAY  28,1,2000-03-20T13:00:00Z,1,672h POSTDOSE,672
ASTUDY,PC,ASTUDY-0029,9,MAB,UNPRONOUNCAMAB,440.6,ng/ml,440.6,440.6,ng/ml,Night City Labs,PLASMA,1,DAY  35,1,2000-03-27T13:00:00Z,1,840h POSTDOSE,840
ASTUDY,PC,ASTUDY-0029,10,MAB,UNPRONOUNCAMAB,330.4,ng/ml,330.4,330.4,ng/ml,Night City Labs,PLASMA,1,DAY  42,1,2000-04-03T13:00:00Z,1,1008h POSTDOSE,1008
ASTUDY,PC,ASTUDY-0030,1,MAB,UNPRONOUNCAMAB,<BLQ,ng/ml,<BLQ,NA,ng/ml,Night City Labs,PLASMA,1,PREDOSE,1,2000-02-21T13:00:00Z,-1,PREDOSE,0
ASTUDY,PC,ASTUDY-0030,2,MAB,UNPRONOUNCAMAB,1968,ng/ml,1968,1968,ng/ml,Night City Labs,PLASMA,1,DAY  1,1,2000-02-22T13:00:00Z,1,24h POSTDOSE,24
ASTUDY,PC,ASTUDY-0030,3,MAB,UNPRONOUNCAMAB,1668,ng/ml,1668,1668,ng/ml,Night City Labs,PLASMA,1,DAY  2,1,2000-02-23T13:00:00Z,1,48h POSTDOSE,48
ASTUDY,PC,ASTUDY-0030,4,MAB,UNPRONOUNCAMAB,1466,ng/ml,1466,1466,ng/ml,Night City Labs,PLASMA,1,DAY  3,1,2000-02-24T13:00:00Z,1,72h POSTDOSE,72
ASTUDY,PC,ASTUDY-0030,5,MAB,UNPRONOUNCAMAB,1326,ng/ml,1326,1326,ng/ml,Night City Labs,PLASMA,1,DAY  4,1,2000-02-25T13:00:00Z,1,96h POSTDOSE,96
ASTUDY,PC,ASTUDY-0030,6,MAB,UNPRONOUNCAMAB,1096,ng/ml,1096,1096,ng/ml,Night City Labs,PLASMA,1,DAY  7,1,2000-02-28T13:00:00Z,1,168h POSTDOSE,168
ASTUDY,PC,ASTUDY-0030,7,MAB,UNPRONOUNCAMAB,711.5,ng/ml,711.5,711.5,ng/ml,Night City Labs,PLASMA,1,DAY  21,1,2000-03-13T13:00:00Z,1,504h POSTDOSE,504
ASTUDY,PC,ASTUDY-0030,8,MAB,UNPRONOUNCAMAB,586.4,ng/ml,586.4,586.4,ng/ml,Night City Labs,PLASMA,1,DAY  28,1,2000-03-20T13:00:00Z,1,672h POSTDOSE,672
ASTUDY,PC,ASTUDY-0030,9,MAB,UNPRONOUNCAMAB,483.2,ng/ml,483.2,483.2,ng/ml,Night City Labs,PLASMA,1,DAY  35,1,2000-03-27T13:00:00Z,1,840h POSTDOSE,840
ASTUDY,PC,ASTUDY-0030,10,MAB,UNPRONOUNCAMAB,398.3,ng/ml,398.3,398.3,ng/ml,Night City Labs,PLASMA,1,DAY  42,1,2000-04-03T13:00:00Z,1,1008h POSTDOSE,1008
ASTUDY,PC,ASTUDY-0031,1,MAB,UNPRONOUNCAMAB,<BLQ,ng/ml,<BLQ,NA,ng/ml,Night City Labs,PLASMA,1,PREDOSE,1,2000-02-21T13:00:00Z,-1,PREDOSE,0
ASTUDY,PC,ASTUDY-0031,2,MAB,UNPRONOUNCAMAB,4215,ng/ml,4215,4215,ng/ml,Night City Labs,PLASMA,1,DAY  1,1,2000-02-22T13:00:00Z,1,24h POSTDOSE,24
ASTUDY,PC,ASTUDY-0031,3,MAB,UNPRONOUNCAMAB,3451,ng/ml,3451,3451,ng/ml,Night City Labs,PLASMA,1,DAY  2,1,2000-02-23T13:00:00Z,1,48h POSTDOSE,48
ASTUDY,PC,ASTUDY-0031,4,MAB,UNPRONOUNCAMAB,3160,ng/ml,3160,3160,ng/ml,Night City Labs,PLASMA,1,DAY  3,1,2000-02-24T13:00:00Z,1,72h POSTDOSE,72
ASTUDY,PC,ASTUDY-0031,5,MAB,UNPRONOUNCAMAB,2994,ng/ml,2994,2994,ng/ml,Night City Labs,PLASMA,1,DAY  4,1,2000-02-25T13:00:00Z,1,96h POSTDOSE,96
ASTUDY,PC,ASTUDY-0031,6,MAB,UNPRONOUNCAMAB,2638,ng/ml,2638,2638,ng/ml,Night City Labs,PLASMA,1,DAY  7,1,2000-02-28T13:00:00Z,1,168h POSTDOSE,168
ASTUDY,PC,ASTUDY-0031,7,MAB,UNPRONOUNCAMAB,1492,ng/ml,1492,1492,ng/ml,Night City Labs,PLASMA,1,DAY  21,1,2000-03-13T13:00:00Z,1,504h POSTDOSE,504
ASTUDY,PC,ASTUDY-0031,8,MAB,UNPRONOUNCAMAB,1122,ng/ml,1122,1122,ng/ml,Night City Labs,PLASMA,1,DAY  28,1,2000-03-20T13:00:00Z,1,672h POSTDOSE,672
ASTUDY,PC,ASTUDY-0031,9,MAB,UNPRONOUNCAMAB,844.2,ng/ml,844.2,844.2,ng/ml,Night City Labs,PLASMA,1,DAY  35,1,2000-03-27T13:00:00Z,1,840h POSTDOSE,840
ASTUDY,PC,ASTUDY-0031,10,MAB,UNPRONOUNCAMAB,635,ng/ml,635,635,ng/ml,Night City Labs,PLASMA,1,DAY  42,1,2000-04-03T13:00:00Z,1,1008h POSTDOSE,1008
ASTUDY,PC,ASTUDY-0032,1,MAB,UNPRONOUNCAMAB,<BLQ,ng/ml,<BLQ,NA,ng/ml,Night City Labs,PLASMA,1,PREDOSE,1,2000-02-21T13:00:00Z,-1,PREDOSE,0
ASTUDY,PC,ASTUDY-0032,2,MAB,UNPRONOUNCAMAB,1426,ng/ml,1426,1426,ng/ml,Night City Labs,PLASMA,1,DAY  1,1,2000-02-22T13:00:00Z,1,24h POSTDOSE,24
ASTUDY,PC,ASTUDY-0032,3,MAB,UNPRONOUNCAMAB,1212,ng/ml,1212,1212,ng/ml,Night City Labs,PLASMA,1,DAY  2,1,2000-02-23T13:00:00Z,1,48h POSTDOSE,48
ASTUDY,PC,ASTUDY-0032,4,MAB,UNPRONOUNCAMAB,1045,ng/ml,1045,1045,ng/ml,Night City Labs,PLASMA,1,DAY  3,1,2000-02-24T13:00:00Z,1,72h POSTDOSE,72
ASTUDY,PC,ASTUDY-0032,5,MAB,UNPRONOUNCAMAB,911.9,ng/ml,911.9,911.9,ng/ml,Night City Labs,PLASMA,1,DAY  4,1,2000-02-25T13:00:00Z,1,96h POSTDOSE,96
ASTUDY,PC,ASTUDY-0032,6,MAB,UNPRONOUNCAMAB,653.1,ng/ml,653.1,653.1,ng/ml,Night City Labs,PLASMA,1,DAY  7,1,2000-02-28T13:00:00Z,1,168h POSTDOSE,168
ASTUDY,PC,ASTUDY-0032,7,MAB,UNPRONOUNCAMAB,301.9,ng/ml,301.9,301.9,ng/ml,Night City Labs,PLASMA,1,DAY  21,1,2000-03-13T13:00:00Z,1,504h POSTDOSE,504
ASTUDY,PC,ASTUDY-0032,8,MAB,UNPRONOUNCAMAB,234.5,ng/ml,234.5,234.5,ng/ml,Night City Labs,PLASMA,1,DAY  28,1,2000-03-20T13:00:00Z,1,672h POSTDOSE,672
ASTUDY,PC,ASTUDY-0032,9,MAB,UNPRONOUNCAMAB,183.8,ng/ml,183.8,183.8,ng/ml,Night City Labs,PLASMA,1,DAY  35,1,2000-03-27T13:00:00Z,1,840h POSTDOSE,840
ASTUDY,PC,ASTUDY-0032,10,MAB,UNPRONOUNCAMAB,144.3,ng/ml,144.3,144.3,ng/ml,Night City Labs,PLASMA,1,DAY  42,1,2000-04-03T13:00:00Z,1,1008h POSTDOSE,1008
ASTUDY,PC,ASTUDY-0033,1,MAB,UNPRONOUNCAMAB,<BLQ,ng/ml,<BLQ,NA,ng/ml,Night City Labs,PLASMA,1,PREDOSE,1,2000-02-21T13:00:00Z,-1,PREDOSE,0
ASTUDY,PC,ASTUDY-0033,2,MAB,UNPRONOUNCAMAB,1230,ng/ml,1230,1230,ng/ml,Night City Labs,PLASMA,1,DAY  1,1,2000-02-22T13:00:00Z,1,24h POSTDOSE,24
ASTUDY,PC,ASTUDY-0033,3,MAB,UNPRONOUNCAMAB,1053,ng/ml,1053,1053,ng/ml,Night City Labs,PLASMA,1,DAY  2,1,2000-02-23T13:00:00Z,1,48h POSTDOSE,48
ASTUDY,PC,ASTUDY-0033,4,MAB,UNPRONOUNCAMAB,913,ng/ml,913,913,ng/ml,Night City Labs,PLASMA,1,DAY  3,1,2000-02-24T13:00:00Z,1,72h POSTDOSE,72
ASTUDY,PC,ASTUDY-0033,5,MAB,UNPRONOUNCAMAB,801.3,ng/ml,801.3,801.3,ng/ml,Night City Labs,PLASMA,1,DAY  4,1,2000-02-25T13:00:00Z,1,96h POSTDOSE,96
ASTUDY,PC,ASTUDY-0033,6,MAB,UNPRONOUNCAMAB,580.7,ng/ml,580.7,580.7,ng/ml,Night City Labs,PLASMA,1,DAY  7,1,2000-02-28T13:00:00Z,1,168h POSTDOSE,168
ASTUDY,PC,ASTUDY-0033,7,MAB,UNPRONOUNCAMAB,277.6,ng/ml,277.6,277.6,ng/ml,Night City Labs,PLASMA,1,DAY  21,1,2000-03-13T13:00:00Z,1,504h POSTDOSE,504
ASTUDY,PC,ASTUDY-0033,8,MAB,UNPRONOUNCAMAB,219.9,ng/ml,219.9,219.9,ng/ml,Night City Labs,PLASMA,1,DAY  28,1,2000-03-20T13:00:00Z,1,672h POSTDOSE,672
ASTUDY,PC,ASTUDY-0033,9,MAB,UNPRONOUNCAMAB,176,ng/ml,176,176,ng/ml,Night City Labs,PLASMA,1,DAY  35,1,2000-03-27T13:00:00Z,1,840h POSTDOSE,840
ASTUDY,PC,ASTUDY-0033,10,MAB,UNPRONOUNCAMAB,141.1,ng/ml,141.1,141.1,ng/ml,Night City Labs,PLASMA,1,DAY  42,1,2000-04-03T13:00:00Z,1,1008h POSTDOSE,1008
ASTUDY,PC,ASTUDY-0034,1,MAB,UNPRONOUNCAMAB,<BLQ,ng/ml,<BLQ,NA,ng/ml,Night City Labs,PLASMA,1,PREDOSE,1,2000-02-21T13:00:00Z,-1,PREDOSE,0
ASTUDY,PC,ASTUDY-0034,2,MAB,UNPRONOUNCAMAB,1121,ng/ml,1121,1121,ng/ml,Night City Labs,PLASMA,1,DAY  1,1,2000-02-22T13:00:00Z,1,24h POSTDOSE,24
ASTUDY,PC,ASTUDY-0034,3,MAB,UNPRONOUNCAMAB,965.7,ng/ml,965.7,965.7,ng/ml,Night City Labs,PLASMA,1,DAY  2,1,2000-02-23T13:00:00Z,1,48h POSTDOSE,48
ASTUDY,PC,ASTUDY-0034,4,MAB,UNPRONOUNCAMAB,893.1,ng/ml,893.1,893.1,ng/ml,Night City Labs,PLASMA,1,DAY  3,1,2000-02-24T13:00:00Z,1,72h POSTDOSE,72
ASTUDY,PC,ASTUDY-0034,5,MAB,UNPRONOUNCAMAB,851.9,ng/ml,851.9,851.9,ng/ml,Night City Labs,PLASMA,1,DAY  4,1,2000-02-25T13:00:00Z,1,96h POSTDOSE,96
ASTUDY,PC,ASTUDY-0034,6,MAB,UNPRONOUNCAMAB,776.6,ng/ml,776.6,776.6,ng/ml,Night City Labs,PLASMA,1,DAY  7,1,2000-02-28T13:00:00Z,1,168h POSTDOSE,168
ASTUDY,PC,ASTUDY-0034,7,MAB,UNPRONOUNCAMAB,533.6,ng/ml,533.6,533.6,ng/ml,Night City Labs,PLASMA,1,DAY  21,1,2000-03-13T13:00:00Z,1,504h POSTDOSE,504
ASTUDY,PC,ASTUDY-0034,8,MAB,UNPRONOUNCAMAB,442.5,ng/ml,442.5,442.5,ng/ml,Night City Labs,PLASMA,1,DAY  28,1,2000-03-20T13:00:00Z,1,672h POSTDOSE,672
ASTUDY,PC,ASTUDY-0034,9,MAB,UNPRONOUNCAMAB,366.9,ng/ml,366.9,366.9,ng/ml,Night City Labs,PLASMA,1,DAY  35,1,2000-03-27T13:00:00Z,1,840h POSTDOSE,840
ASTUDY,PC,ASTUDY-0034,10,MAB,UNPRONOUNCAMAB,304.3,ng/ml,304.3,304.3,ng/ml,Night City Labs,PLASMA,1,DAY  42,1,2000-04-03T13:00:00Z,1,1008h POSTDOSE,1008
ASTUDY,PC,ASTUDY-0035,1,MAB,UNPRONOUNCAMAB,<BLQ,ng/ml,<BLQ,NA,ng/ml,Night City Labs,PLASMA,1,PREDOSE,1,2000-02-21T13:00:00Z,-1,PREDOSE,0
ASTUDY,PC,ASTUDY-0035,2,MAB,UNPRONOUNCAMAB,1741,ng/ml,1741,1741,ng/ml,Night City Labs,PLASMA,1,DAY  1,1,2000-02-22T13:00:00Z,1,24h POSTDOSE,24
ASTUDY,PC,ASTUDY-0035,3,MAB,UNPRONOUNCAMAB,1543,ng/ml,1543,1543,ng/ml,Night City Labs,PLASMA,1,DAY  2,1,2000-02-23T13:00:00Z,1,48h POSTDOSE,48
ASTUDY,PC,ASTUDY-0035,4,MAB,UNPRONOUNCAMAB,1478,ng/ml,1478,1478,ng/ml,Night City Labs,PLASMA,1,DAY  3,1,2000-02-24T13:00:00Z,1,72h POSTDOSE,72
ASTUDY,PC,ASTUDY-0035,5,MAB,UNPRONOUNCAMAB,1439,ng/ml,1439,1439,ng/ml,Night City Labs,PLASMA,1,DAY  4,1,2000-02-25T13:00:00Z,1,96h POSTDOSE,96
ASTUDY,PC,ASTUDY-0035,6,MAB,UNPRONOUNCAMAB,1344,ng/ml,1344,1344,ng/ml,Night City Labs,PLASMA,1,DAY  7,1,2000-02-28T13:00:00Z,1,168h POSTDOSE,168
ASTUDY,PC,ASTUDY-0035,7,MAB,UNPRONOUNCAMAB,979.5,ng/ml,979.5,979.5,ng/ml,Night City Labs,PLASMA,1,DAY  21,1,2000-03-13T13:00:00Z,1,504h POSTDOSE,504
ASTUDY,PC,ASTUDY-0035,8,MAB,UNPRONOUNCAMAB,836.3,ng/ml,836.3,836.3,ng/ml,Night City Labs,PLASMA,1,DAY  28,1,2000-03-20T13:00:00Z,1,672h POSTDOSE,672
ASTUDY,PC,ASTUDY-0035,9,MAB,UNPRONOUNCAMAB,714,ng/ml,714,714,ng/ml,Night City Labs,PLASMA,1,DAY  35,1,2000-03-27T13:00:00Z,1,840h POSTDOSE,840
ASTUDY,PC,ASTUDY-0035,10,MAB,UNPRONOUNCAMAB,609.6,ng/ml,609.6,609.6,ng/ml,Night City Labs,PLASMA,1,DAY  42,1,2000-04-03T13:00:00Z,1,1008h POSTDOSE,1008
ASTUDY,PC,ASTUDY-0036,1,MAB,UNPRONOUNCAMAB,<BLQ,ng/ml,<BLQ,NA,ng/ml,Night City Labs,PLASMA,1,PREDOSE,1,2000-02-21T13:00:00Z,-1,PREDOSE,0
ASTUDY,PC,ASTUDY-0036,2,MAB,UNPRONOUNCAMAB,2653,ng/ml,2653,2653,ng/ml,Night City Labs,PLASMA,1,DAY  1,1,2000-02-22T13:00:00Z,1,24h POSTDOSE,24
ASTUDY,PC,ASTUDY-0036,3,MAB,UNPRONOUNCAMAB,2329,ng/ml,2329,2329,ng/ml,Night City Labs,PLASMA,1,DAY  2,1,2000-02-23T13:00:00Z,1,48h POSTDOSE,48
ASTUDY,PC,ASTUDY-0036,4,MAB,UNPRONOUNCAMAB,2079,ng/ml,2079,2079,ng/ml,Night City Labs,PLASMA,1,DAY  3,1,2000-02-24T13:00:00Z,1,72h POSTDOSE,72
ASTUDY,PC,ASTUDY-0036,5,MAB,UNPRONOUNCAMAB,1883,ng/ml,1883,1883,ng/ml,Night City Labs,PLASMA,1,DAY  4,1,2000-02-25T13:00:00Z,1,96h POSTDOSE,96
ASTUDY,PC,ASTUDY-0036,6,MAB,UNPRONOUNCAMAB,1503,ng/ml,1503,1503,ng/ml,Night City Labs,PLASMA,1,DAY  7,1,2000-02-28T13:00:00Z,1,168h POSTDOSE,168
ASTUDY,PC,ASTUDY-0036,7,MAB,UNPRONOUNCAMAB,869.7,ng/ml,869.7,869.7,ng/ml,Night City Labs,PLASMA,1,DAY  21,1,2000-03-13T13:00:00Z,1,504h POSTDOSE,504
ASTUDY,PC,ASTUDY-0036,8,MAB,UNPRONOUNCAMAB,699.5,ng/ml,699.5,699.5,ng/ml,Night City Labs,PLASMA,1,DAY  28,1,2000-03-20T13:00:00Z,1,672h POSTDOSE,672
ASTUDY,PC,ASTUDY-0036,9,MAB,UNPRONOUNCAMAB,563.7,ng/ml,563.7,563.7,ng/ml,Night City Labs,PLASMA,1,DAY  35,1,2000-03-27T13:00:00Z,1,840h POSTDOSE,840
ASTUDY,PC,ASTUDY-0036,10,MAB,UNPRONOUNCAMAB,454.4,ng/ml,454.4,454.4,ng/ml,Night City Labs,PLASMA,1,DAY  42,1,2000-04-03T13:00:00Z,1,1008h POSTDOSE,1008
ASTUDY,PC,ASTUDY-0037,1,MAB,UNPRONOUNCAMAB,<BLQ,ng/ml,<BLQ,NA,ng/ml,Night City Labs,PLASMA,1,PREDOSE,1,2000-02-21T13:00:00Z,-1,PREDOSE,0
ASTUDY,PC,ASTUDY-0037,2,MAB,UNPRONOUNCAMAB,1760,ng/ml,1760,1760,ng/ml,Night City Labs,PLASMA,1,DAY  1,1,2000-02-22T13:00:00Z,1,24h POSTDOSE,24
ASTUDY,PC,ASTUDY-0037,3,MAB,UNPRONOUNCAMAB,1506,ng/ml,1506,1506,ng/ml,Night City Labs,PLASMA,1,DAY  2,1,2000-02-23T13:00:00Z,1,48h POSTDOSE,48
ASTUDY,PC,ASTUDY-0037,4,MAB,UNPRONOUNCAMAB,1319,ng/ml,1319,1319,ng/ml,Night City Labs,PLASMA,1,DAY  3,1,2000-02-24T13:00:00Z,1,72h POSTDOSE,72
ASTUDY,PC,ASTUDY-0037,5,MAB,UNPRONOUNCAMAB,1178,ng/ml,1178,1178,ng/ml,Night City Labs,PLASMA,1,DAY  4,1,2000-02-25T13:00:00Z,1,96h POSTDOSE,96
ASTUDY,PC,ASTUDY-0037,6,MAB,UNPRONOUNCAMAB,922.1,ng/ml,922.1,922.1,ng/ml,Night City Labs,PLASMA,1,DAY  7,1,2000-02-28T13:00:00Z,1,168h POSTDOSE,168
ASTUDY,PC,ASTUDY-0037,7,MAB,UNPRONOUNCAMAB,515.4,ng/ml,515.4,515.4,ng/ml,Night City Labs,PLASMA,1,DAY  21,1,2000-03-13T13:00:00Z,1,504h POSTDOSE,504
ASTUDY,PC,ASTUDY-0037,8,MAB,UNPRONOUNCAMAB,404.1,ng/ml,404.1,404.1,ng/ml,Night City Labs,PLASMA,1,DAY  28,1,2000-03-20T13:00:00Z,1,672h POSTDOSE,672
ASTUDY,PC,ASTUDY-0037,9,MAB,UNPRONOUNCAMAB,317.1,ng/ml,317.1,317.1,ng/ml,Night City Labs,PLASMA,1,DAY  35,1,2000-03-27T13:00:00Z,1,840h POSTDOSE,840
ASTUDY,PC,ASTUDY-0037,10,MAB,UNPRONOUNCAMAB,248.9,ng/ml,248.9,248.9,ng/ml,Night City Labs,PLASMA,1,DAY  42,1,2000-04-03T13:00:00Z,1,1008h POSTDOSE,1008
ASTUDY,PC,ASTUDY-0038,1,MAB,UNPRONOUNCAMAB,<BLQ,ng/ml,<BLQ,NA,ng/ml,Night City Labs,PLASMA,1,PREDOSE,1,2000-02-21T13:00:00Z,-1,PREDOSE,0
ASTUDY,PC,ASTUDY-0038,2,MAB,UNPRONOUNCAMAB,2699,ng/ml,2699,2699,ng/ml,Night City Labs,PLASMA,1,DAY  1,1,2000-02-22T13:00:00Z,1,24h POSTDOSE,24
ASTUDY,PC,ASTUDY-0038,3,MAB,UNPRONOUNCAMAB,2061,ng/ml,2061,2061,ng/ml,Night City Labs,PLASMA,1,DAY  2,1,2000-02-23T13:00:00Z,1,48h POSTDOSE,48
ASTUDY,PC,ASTUDY-0038,4,MAB,UNPRONOUNCAMAB,1682,ng/ml,1682,1682,ng/ml,Night City Labs,PLASMA,1,DAY  3,1,2000-02-24T13:00:00Z,1,72h POSTDOSE,72
ASTUDY,PC,ASTUDY-0038,5,MAB,UNPRONOUNCAMAB,1451,ng/ml,1451,1451,ng/ml,Night City Labs,PLASMA,1,DAY  4,1,2000-02-25T13:00:00Z,1,96h POSTDOSE,96
ASTUDY,PC,ASTUDY-0038,6,MAB,UNPRONOUNCAMAB,1136,ng/ml,1136,1136,ng/ml,Night City Labs,PLASMA,1,DAY  7,1,2000-02-28T13:00:00Z,1,168h POSTDOSE,168
ASTUDY,PC,ASTUDY-0038,7,MAB,UNPRONOUNCAMAB,708.6,ng/ml,708.6,708.6,ng/ml,Night City Labs,PLASMA,1,DAY  21,1,2000-03-13T13:00:00Z,1,504h POSTDOSE,504
ASTUDY,PC,ASTUDY-0038,8,MAB,UNPRONOUNCAMAB,571.9,ng/ml,571.9,571.9,ng/ml,Night City Labs,PLASMA,1,DAY  28,1,2000-03-20T13:00:00Z,1,672h POSTDOSE,672
ASTUDY,PC,ASTUDY-0038,9,MAB,UNPRONOUNCAMAB,461.6,ng/ml,461.6,461.6,ng/ml,Night City Labs,PLASMA,1,DAY  35,1,2000-03-27T13:00:00Z,1,840h POSTDOSE,840
ASTUDY,PC,ASTUDY-0038,10,MAB,UNPRONOUNCAMAB,372.6,ng/ml,372.6,372.6,ng/ml,Night City Labs,PLASMA,1,DAY  42,1,2000-04-03T13:00:00Z,1,1008h POSTDOSE,1008
ASTUDY,PC,ASTUDY-0039,1,MAB,UNPRONOUNCAMAB,<BLQ,ng/ml,<BLQ,NA,ng/ml,Night City Labs,PLASMA,1,PREDOSE,1,2000-02-21T13:00:00Z,-1,PREDOSE,0
ASTUDY,PC,ASTUDY-0039,2,MAB,UNPRONOUNCAMAB,1942,ng/ml,1942,1942,ng/ml,Night City Labs,PLASMA,1,DAY  1,1,2000-02-22T13:00:00Z,1,24h POSTDOSE,24
ASTUDY,PC,ASTUDY-0039,3,MAB,UNPRONOUNCAMAB,1707,ng/ml,1707,1707,ng/ml,Night City Labs,PLASMA,1,DAY  2,1,2000-02-23T13:00:00Z,1,48h POSTDOSE,48
ASTUDY,PC,ASTUDY-0039,4,MAB,UNPRONOUNCAMAB,1558,ng/ml,1558,1558,ng/ml,Night City Labs,PLASMA,1,DAY  3,1,2000-02-24T13:00:00Z,1,72h POSTDOSE,72
ASTUDY,PC,ASTUDY-0039,5,MAB,UNPRONOUNCAMAB,1459,ng/ml,1459,1459,ng/ml,Night City Labs,PLASMA,1,DAY  4,1,2000-02-25T13:00:00Z,1,96h POSTDOSE,96
ASTUDY,PC,ASTUDY-0039,6,MAB,UNPRONOUNCAMAB,1291,ng/ml,1291,1291,ng/ml,Night City Labs,PLASMA,1,DAY  7,1,2000-02-28T13:00:00Z,1,168h POSTDOSE,168
ASTUDY,PC,ASTUDY-0039,7,MAB,UNPRONOUNCAMAB,905.9,ng/ml,905.9,905.9,ng/ml,Night City Labs,PLASMA,1,DAY  21,1,2000-03-13T13:00:00Z,1,504h POSTDOSE,504
ASTUDY,PC,ASTUDY-0039,8,MAB,UNPRONOUNCAMAB,763.7,ng/ml,763.7,763.7,ng/ml,Night City Labs,PLASMA,1,DAY  28,1,2000-03-20T13:00:00Z,1,672h POSTDOSE,672
ASTUDY,PC,ASTUDY-0039,9,MAB,UNPRONOUNCAMAB,643.9,ng/ml,643.9,643.9,ng/ml,Night City Labs,PLASMA,1,DAY  35,1,2000-03-27T13:00:00Z,1,840h POSTDOSE,840
ASTUDY,PC,ASTUDY-0039,10,MAB,UNPRONOUNCAMAB,542.9,ng/ml,542.9,542.9,ng/ml,Night City Labs,PLASMA,1,DAY  42,1,2000-04-03T13:00:00Z,1,1008h POSTDOSE,1008
ASTUDY,PC,ASTUDY-0040,1,MAB,UNPRONOUNCAMAB,<BLQ,ng/ml,<BLQ,NA,ng/ml,Night City Labs,PLASMA,1,PREDOSE,1,2000-02-21T13:00:00Z,-1,PREDOSE,0
ASTUDY,PC,ASTUDY-0040,2,MAB,UNPRONOUNCAMAB,1754,ng/ml,1754,1754,ng/ml,Night City Labs,PLASMA,1,DAY  1,1,2000-02-22T13:00:00Z,1,24h POSTDOSE,24
ASTUDY,PC,ASTUDY-0040,3,MAB,UNPRONOUNCAMAB,1458,ng/ml,1458,1458,ng/ml,Night City Labs,PLASMA,1,DAY  2,1,2000-02-23T13:00:00Z,1,48h POSTDOSE,48
ASTUDY,PC,ASTUDY-0040,4,MAB,UNPRONOUNCAMAB,1320,ng/ml,1320,1320,ng/ml,Night City Labs,PLASMA,1,DAY  3,1,2000-02-24T13:00:00Z,1,72h POSTDOSE,72
ASTUDY,PC,ASTUDY-0040,5,MAB,UNPRONOUNCAMAB,1239,ng/ml,1239,1239,ng/ml,Night City Labs,PLASMA,1,DAY  4,1,2000-02-25T13:00:00Z,1,96h POSTDOSE,96
ASTUDY,PC,ASTUDY-0040,6,MAB,UNPRONOUNCAMAB,1078,ng/ml,1078,1078,ng/ml,Night City Labs,PLASMA,1,DAY  7,1,2000-02-28T13:00:00Z,1,168h POSTDOSE,168
ASTUDY,PC,ASTUDY-0040,7,MAB,UNPRONOUNCAMAB,597.2,ng/ml,597.2,597.2,ng/ml,Night City Labs,PLASMA,1,DAY  21,1,2000-03-13T13:00:00Z,1,504h POSTDOSE,504
ASTUDY,PC,ASTUDY-0040,8,MAB,UNPRONOUNCAMAB,444.6,ng/ml,444.6,444.6,ng/ml,Night City Labs,PLASMA,1,DAY  28,1,2000-03-20T13:00:00Z,1,672h POSTDOSE,672
ASTUDY,PC,ASTUDY-0040,9,MAB,UNPRONOUNCAMAB,330.9,ng/ml,330.9,330.9,ng/ml,Night City Labs,PLASMA,1,DAY  35,1,2000-03-27T13:00:00Z,1,840h POSTDOSE,840
ASTUDY,PC,ASTUDY-0040,10,MAB,UNPRONOUNCAMAB,246.3,ng/ml,246.3,246.3,ng/ml,Night City Labs,PLASMA,1,DAY  42,1,2000-04-03T13:00:00Z,1,1008h POSTDOSE,1008
