STUDYID,DOMAIN,USUBJID,EXSEQ,EXTRT,EXDOSE,EXDOSU,EXDOSFRM,EXDOSFRQ,EXROUTE,VISITNUM,VISIT,VISITDY,EXSTDTC,EXENDTC,EXSTDY,EXENDY
ASTUDY,EX,ASTUDY-0001,1,SD 3 mg IV,3,mg,IV,SD,IV,1,PREDOSE,1,2000-02-21,2000-04-03,0,42
ASTUDY,EX,ASTUDY-0002,1,SD 3 mg IV,3,mg,IV,SD,IV,1,PREDOSE,1,2000-02-21,2000-04-03,0,42
ASTUDY,EX,ASTUDY-0003,1,SD 3 mg IV,3,mg,IV,SD,IV,1,PREDOSE,1,2000-02-21,2000-04-03,0,42
ASTUDY,EX,ASTUDY-0004,1,SD 3 mg IV,3,mg,IV,SD,IV,1,PREDOSE,1,2000-02-21,2000-04-03,0,42
ASTUDY,EX,ASTUDY-0005,1,SD 3 mg IV,3,mg,IV,SD,IV,1,PREDOSE,1,2000-02-21,2000-04-03,0,42
ASTUDY,EX,ASTUDY-0006,1,SD 3 mg IV,3,mg,IV,SD,IV,1,PREDOSE,1,2000-02-21,2000-04-03,0,42
ASTUDY,EX,ASTUDY-0007,1,SD 3 mg IV,3,mg,IV,SD,IV,1,PREDOSE,1,2000-02-21,2000-04-03,0,42
ASTUDY,EX,ASTUDY-0008,1,SD 3 mg IV,3,mg,IV,SD,IV,1,PREDOSE,1,2000-02-21,2000-04-03,0,42
ASTUDY,EX,ASTUDY-0009,1,SD 3 mg IV,3,mg,IV,SD,IV,1,PREDOSE,1,2000-02-21,2000-04-03,0,42
ASTUDY,EX,ASTUDY-0010,1,SD 3 mg IV,3,mg,IV,SD,IV,1,PREDOSE,1,2000-02-21,2000-04-03,0,42
ASTUDY,EX,ASTUDY-0011,1,SD 3 mg IV,3,mg,IV,SD,IV,1,PREDOSE,1,2000-02-21,2000-04-03,0,42
ASTUDY,EX,ASTUDY-0012,1,SD 3 mg IV,3,mg,IV,SD,IV,1,PREDOSE,1,2000-02-21,2000-04-03,0,42
ASTUDY,EX,ASTUDY-0013,1,SD 3 mg IV,3,mg,IV,SD,IV,1,PREDOSE,1,2000-02-21,2000-04-03,0,42
ASTUDY,EX,ASTUDY-0014,1,SD 3 mg IV,3,mg,IV,SD,IV,1,PREDOSE,1,2000-02-21,2000-04-03,0,42
ASTUDY,EX,ASTUDY-0015,1,SD 3 mg IV,3,mg,IV,SD,IV,1,PREDOSE,1,2000-02-21,2000-04-03,0,42
ASTUDY,EX,ASTUDY-0016,1,SD 3 mg IV,3,mg,IV,SD,IV,1,PREDOSE,1,2000-02-21,2000-04-03,0,42
ASTUDY,EX,ASTUDY-0017,1,SD 3 mg IV,3,mg,IV,SD,IV,1,PREDOSE,1,2000-02-21,2000-04-03,0,42
ASTUDY,EX,ASTUDY-0018,1,SD 3 mg IV,3,mg,IV,SD,IV,1,PREDOSE,1,2000-02-21,2000-04-03,0,42
ASTUDY,EX,ASTUDY-0019,1,SD 3 mg IV,3,mg,IV,SD,IV,1,PREDOSE,1,2000-02-21,2000-04-03,0,42
ASTUDY,EX,ASTUDY-0020,1,SD 3 mg IV,3,mg,IV,SD,IV,1,PREDOSE,1,2000-02-21,2000-04-03,0,42
ASTUDY,EX,ASTUDY-0021,1,SD 10 mg IV,10,mg,IV,SD,IV,1,PREDOSE,1,2000-02-21,2000-04-03,0,42
ASTUDY,EX,ASTUDY-0022,1,SD 10 mg IV,10,mg,IV,SD,IV,1,PREDOSE,1,2000-02-21,2000-04-03,0,42
ASTUDY,EX,ASTUDY-0023,1,SD 10 mg IV,10,mg,IV,SD,IV,1,PREDOSE,1,2000-02-21,2000-04-03,0,42
ASTUDY,EX,ASTUDY-0024,1,SD 10 mg IV,10,mg,IV,SD,IV,1,PREDOSE,1,2000-02-21,2000-04-03,0,42
ASTUDY,EX,ASTUDY-0025,1,SD 10 mg IV,10,mg,IV,SD,IV,1,PREDOSE,1,2000-02-21,2000-04-03,0,42
ASTUDY,EX,ASTUDY-0026,1,SD 10 mg IV,10,mg,IV,SD,IV,1,PREDOSE,1,2000-02-21,2000-04-03,0,42
ASTUDY,EX,ASTUDY-0027,1,SD 10 mg IV,10,mg,IV,SD,IV,1,PREDOSE,1,2000-02-21,2000-04-03,0,42
ASTUDY,EX,ASTUDY-0028,1,SD 10 mg IV,10,mg,IV,SD,IV,1,PREDOSE,1,2000-02-21,2000-04-03,0,42
ASTUDY,EX,ASTUDY-0029,1,SD 10 mg IV,10,mg,IV,SD,IV,1,PREDOSE,1,2000-02-21,2000-04-03,0,42
ASTUDY,EX,ASTUDY-0030,1,SD 10 mg IV,10,mg,IV,SD,IV,1,PREDOSE,1,2000-02-21,2000-04-03,0,42
ASTUDY,EX,ASTUDY-0031,1,SD 10 mg IV,10,mg,IV,SD,IV,1,PREDOSE,1,2000-02-21,2000-04-03,0,42
ASTUDY,EX,ASTUDY-0032,1,SD 10 mg IV,10,mg,IV,SD,IV,1,PREDOSE,1,2000-02-21,2000-04-03,0,42
ASTUDY,EX,ASTUDY-0033,1,SD 10 mg IV,10,mg,IV,SD,IV,1,PREDOSE,1,2000-02-21,2000-04-03,0,42
ASTUDY,EX,ASTUDY-0034,1,SD 10 mg IV,10,mg,IV,SD,IV,1,PREDOSE,1,2000-02-21,2000-04-03,0,42
ASTUDY,EX,ASTUDY-0035,1,SD 10 mg IV,10,mg,IV,SD,IV,1,PREDOSE,1,2000-02-21,2000-04-03,0,42
ASTUDY,EX,ASTUDY-0036,1,SD 10 mg IV,10,mg,IV,SD,IV,1,PREDOSE,1,2000-02-21,2000-04-03,0,42
ASTUDY,EX,ASTUDY-0037,1,SD 10 mg IV,10,mg,IV,SD,IV,1,PREDOSE,1,2000-02-21,2000-04-03,0,42
ASTUDY,EX,ASTUDY-0038,1,SD 10 mg IV,10,mg,IV,SD,IV,1,PREDOSE,1,2000-02-21,2000-04-03,0,42
ASTUDY,EX,ASTUDY-0039,1,SD 10 mg IV,10,mg,IV,SD,IV,1,PREDOSE,1,2000-02-21,2000-04-03,0,42
ASTUDY,EX,ASTUDY-0040,1,SD 10 mg IV,10,mg,IV,SD,IV,1,PREDOSE,1,2000-02-21,2000-04-03,0,42
